treatmentID;sessionID;groupID;matchID;subjectID;partnerID;supergame;round;choice;p_choice;signal;p_signal;profit;p_profit;group;match;size_group;subject;partner;period;q1;q2;q3;q4;q5;q6a;q6b;q6c;q6d;time;gender;age;money;exprounds;probknowledge;nknown;rely;study;work;instructions
13;1;1;1;1;24;1;1;1;1;1;1;30;30;1;8;1;1;24;1;2;3;2;2;1;1;2;3;1;16,084;0;19;450;4;7;0;9;4;1;1
13;1;2;8;2;22;1;1;1;1;1;1;30;30;2;8;8;2;22;1;2;2;2;2;2;1;2;2;3;21,31;0;21;200;6;7;0;9;4;0;1
13;1;3;13;3;13;1;1;1;1;1;1;30;30;3;12;13;3;13;1;2;3;2;2;1;1;2;3;1;6,88;1;20;100;3;5;0;6;6;0;1
13;1;3;12;4;6;1;1;1;1;1;1;30;30;3;12;12;4;6;1;2;3;2;2;2;1;1;2;2;23,541;0;26;700;8;7;0;9;1;1;0
13;1;1;4;5;10;1;1;0;0;0;0;17;17;1;8;4;5;10;1;2;3;2;2;2;1;2;3;2;23,837;1;22;200;6;6;4;9;5;0;1
13;1;3;12;6;4;1;1;1;1;1;1;30;30;3;12;12;6;4;1;2;3;2;2;1;1;2;3;2;21,607;0;18;600;5;3;0;9;4;1;1
13;1;3;14;7;28;1;1;0;0;0;1;17;37;3;12;14;7;28;1;2;3;2;2;2;1;2;2;1;18,923;0;20;150;7;7;0;7;8;0;1
13;1;3;9;8;23;1;1;1;0;0;1;0;37;3;12;9;8;23;1;2;3;2;2;2;1;2;3;2;16,646;0;20;95;10;7;0;9;4;0;1
13;1;1;3;9;12;1;1;1;1;1;1;30;30;1;8;3;9;12;1;2;3;2;2;1;1;2;3;2;46,754;1;28;1050;4;4;1;9;4;1;1
13;1;1;4;10;5;1;1;0;0;0;0;17;17;1;8;4;10;5;1;3;3;2;2;2;1;2;2;2;13,573;1;23;300;5;7;3;1;5;0;0
13;1;3;11;11;17;1;1;0;0;0;0;17;17;3;12;11;11;17;1;2;3;2;2;1;1;2;3;2;19,033;0;23;250;5;2;0;9;1;1;1
13;1;1;3;12;9;1;1;1;1;1;1;30;30;1;8;3;12;9;1;2;2;2;2;1;1;2;3;1;10,562;0;21;250;8;9;3;9;4;0;1
13;1;3;13;13;3;1;1;1;1;1;1;30;30;3;12;13;13;3;1;2;3;2;2;1;1;2;1;1;6,896;1;23;300;5;7;1;9;6;1;1
13;1;2;6;14;15;1;1;0;0;0;0;17;17;2;8;6;14;15;1;2;3;2;2;1;1;2;2;1;9,376;0;23;170;5;5;0;9;4;0;1
13;1;2;6;15;14;1;1;0;0;0;0;17;17;2;8;6;15;14;1;2;3;2;2;1;1;2;2;1;27,753;0;19;400;5;4;1;9;4;0;1
13;1;2;5;16;19;1;1;1;1;1;1;30;30;2;8;5;16;19;1;2;3;2;2;1;1;2;3;1;8,487;0;21;350;8;3;0;9;4;1;1
13;1;3;11;17;11;1;1;0;0;0;0;17;17;3;12;11;17;11;1;2;3;2;2;2;1;2;2;3;21,56;0;20;100;5;7;0;8;1;0;1
13;1;1;2;18;20;1;1;0;0;0;0;17;17;1;8;2;18;20;1;3;3;2;2;1;1;2;3;1;6,677;0;23;500;3;6;0;9;4;1;1
13;1;2;5;19;16;1;1;1;1;1;1;30;30;2;8;5;19;16;1;2;3;2;2;2;1;2;3;1;31,357;1;21;200;5;5;1;8;4;0;1
13;1;1;2;20;18;1;1;0;0;0;0;17;17;1;8;2;20;18;1;2;2;2;2;2;1;2;1;1;9,938;1;22;450;4;7;0;9;6;1;1
13;1;3;10;21;26;1;1;1;1;1;0;30;0;3;12;10;21;26;1;2;2;2;2;1;1;2;3;2;12,34;1;20;400;6;7;0;9;5;0;1
13;1;2;8;22;2;1;1;1;1;1;1;30;30;2;8;8;22;2;1;2;3;2;2;1;1;2;2;1;8,924;1;25;400;5;6;0;9;4;0;1
13;1;3;9;23;8;1;1;0;1;1;0;37;0;3;12;9;23;8;1;2;3;2;2;1;1;2;3;1;8,425;0;23;300;6;7;0;9;8;1;1
13;1;1;1;24;1;1;1;1;1;1;1;30;30;1;8;1;24;1;1;2;2;2;2;2;1;2;2;1;14,165;0;20;100;8;5;0;9;5;0;1
13;1;2;7;25;27;1;1;0;1;1;0;37;0;2;8;7;25;27;1;2;3;2;2;2;1;2;3;1;8,581;0;22;300;5;7;0;9;1;1;1
13;1;3;10;26;21;1;1;1;1;0;1;0;30;3;12;10;26;21;1;2;3;2;2;1;1;2;2;1;8,113;1;20;150;9;8;0;9;6;0;1
13;1;2;7;27;25;1;1;1;0;0;1;0;37;2;8;7;27;25;1;2;2;2;2;2;1;2;2;2;29,921;0;19;300;5;4;4;9;5;1;0
13;1;3;14;28;7;1;1;0;0;1;0;37;17;3;12;14;28;7;1;2;3;2;2;2;1;2;3;1;8,69;0;21;300;5;2;5;8;5;0;1
13;1;1;1;1;24;1;2;1;1;1;1;30;30;1;8;1;1;24;2;2;3;2;2;1;1;2;3;1;3,791;0;19;450;4;7;0;9;4;1;1
13;1;2;8;2;22;1;2;1;1;1;1;30;30;2;8;8;2;22;2;2;2;2;2;2;1;2;2;3;4,041;0;21;200;6;7;0;9;4;0;1
13;1;3;13;3;13;1;2;1;1;1;1;30;30;3;12;13;3;13;2;2;3;2;2;1;1;2;3;1;4,571;1;20;100;3;5;0;6;6;0;1
13;1;3;12;4;6;1;2;1;1;1;1;30;30;3;12;12;4;6;2;2;3;2;2;2;1;1;2;2;4,181;0;26;700;8;7;0;9;1;1;0
13;1;1;4;5;10;1;2;0;0;0;0;17;17;1;8;4;5;10;2;2;3;2;2;2;1;2;3;2;6,505;1;22;200;6;6;4;9;5;0;1
13;1;3;12;6;4;1;2;1;1;1;1;30;30;3;12;12;6;4;2;2;3;2;2;1;1;2;3;2;3,167;0;18;600;5;3;0;9;4;1;1
13;1;3;14;7;28;1;2;1;0;0;1;0;37;3;12;14;7;28;2;2;3;2;2;2;1;2;2;1;10,811;0;20;150;7;7;0;7;8;0;1
13;1;3;9;8;23;1;2;0;0;1;0;37;17;3;12;9;8;23;2;2;3;2;2;2;1;2;3;2;7,379;0;20;95;10;7;0;9;4;0;1
13;1;1;3;9;12;1;2;1;1;1;1;30;30;1;8;3;9;12;2;2;3;2;2;1;1;2;3;2;6,661;1;28;1050;4;4;1;9;4;1;1
13;1;1;4;10;5;1;2;0;0;0;0;17;17;1;8;4;10;5;2;3;3;2;2;2;1;2;2;2;7,909;1;23;300;5;7;3;1;5;0;0
13;1;3;11;11;17;1;2;1;1;1;1;30;30;3;12;11;11;17;2;2;3;2;2;1;1;2;3;2;17,519;0;23;250;5;2;0;9;1;1;1
13;1;1;3;12;9;1;2;1;1;1;1;30;30;1;8;3;12;9;2;2;2;2;2;1;1;2;3;1;3,167;0;21;250;8;9;3;9;4;0;1
13;1;3;13;13;3;1;2;1;1;1;1;30;30;3;12;13;13;3;2;2;3;2;2;1;1;2;1;1;2,652;1;23;300;5;7;1;9;6;1;1
13;1;2;6;14;15;1;2;1;1;1;1;30;30;2;8;6;14;15;2;2;3;2;2;1;1;2;2;1;3,916;0;23;170;5;5;0;9;4;0;1
13;1;2;6;15;14;1;2;1;1;1;1;30;30;2;8;6;15;14;2;2;3;2;2;1;1;2;2;1;3,183;0;19;400;5;4;1;9;4;0;1
13;1;2;5;16;19;1;2;1;1;1;1;30;30;2;8;5;16;19;2;2;3;2;2;1;1;2;3;1;6,209;0;21;350;8;3;0;9;4;1;1
13;1;3;11;17;11;1;2;1;1;1;1;30;30;3;12;11;17;11;2;2;3;2;2;2;1;2;2;3;6,708;0;20;100;5;7;0;8;1;0;1
13;1;1;2;18;20;1;2;0;0;0;0;17;17;1;8;2;18;20;2;3;3;2;2;1;1;2;3;1;3,042;0;23;500;3;6;0;9;4;1;1
13;1;2;5;19;16;1;2;1;1;1;1;30;30;2;8;5;19;16;2;2;3;2;2;2;1;2;3;1;2,917;1;21;200;5;5;1;8;4;0;1
13;1;1;2;20;18;1;2;0;0;0;0;17;17;1;8;2;20;18;2;2;2;2;2;2;1;2;1;1;3,307;1;22;450;4;7;0;9;6;1;1
13;1;3;10;21;26;1;2;1;1;1;1;30;30;3;12;10;21;26;2;2;2;2;2;1;1;2;3;2;10,327;1;20;400;6;7;0;9;5;0;1
13;1;2;8;22;2;1;2;1;1;1;1;30;30;2;8;8;22;2;2;2;3;2;2;1;1;2;2;1;3,245;1;25;400;5;6;0;9;4;0;1
13;1;3;9;23;8;1;2;0;0;0;1;17;37;3;12;9;23;8;2;2;3;2;2;1;1;2;3;1;3,885;0;23;300;6;7;0;9;8;1;1
13;1;1;1;24;1;1;2;1;1;1;1;30;30;1;8;1;24;1;2;2;2;2;2;2;1;2;2;1;4,259;0;20;100;8;5;0;9;5;0;1
13;1;2;7;25;27;1;2;1;0;0;1;0;37;2;8;7;25;27;2;2;3;2;2;2;1;2;3;1;7,535;0;22;300;5;7;0;9;1;1;1
13;1;3;10;26;21;1;2;1;1;1;1;30;30;3;12;10;26;21;2;2;3;2;2;1;1;2;2;1;3,058;1;20;150;9;8;0;9;6;0;1
13;1;2;7;27;25;1;2;0;1;1;0;37;0;2;8;7;27;25;2;2;2;2;2;2;1;2;2;2;12,59;0;19;300;5;4;4;9;5;1;0
13;1;3;14;28;7;1;2;0;1;1;0;37;0;3;12;14;28;7;2;2;3;2;2;2;1;2;3;1;4,992;0;21;300;5;2;5;8;5;0;1
13;1;1;1;1;24;1;3;1;1;1;1;30;30;1;8;1;1;24;3;2;3;2;2;1;1;2;3;1;21,076;0;19;450;4;7;0;9;4;1;1
13;1;2;8;2;22;1;3;1;1;1;1;30;30;2;8;8;2;22;3;2;2;2;2;2;1;2;2;3;2,668;0;21;200;6;7;0;9;4;0;1
13;1;3;13;3;13;1;3;1;1;0;1;0;30;3;12;13;3;13;3;2;3;2;2;1;1;2;3;1;1,794;1;20;100;3;5;0;6;6;0;1
13;1;3;12;4;6;1;3;1;1;1;1;30;30;3;12;12;4;6;3;2;3;2;2;2;1;1;2;2;2,777;0;26;700;8;7;0;9;1;1;0
13;1;1;4;5;10;1;3;0;0;0;0;17;17;1;8;4;5;10;3;2;3;2;2;2;1;2;3;2;9,891;1;22;200;6;6;4;9;5;0;1
13;1;3;12;6;4;1;3;1;1;1;1;30;30;3;12;12;6;4;3;2;3;2;2;1;1;2;3;2;10,203;0;18;600;5;3;0;9;4;1;1
13;1;3;14;7;28;1;3;0;0;0;0;17;17;3;12;14;7;28;3;2;3;2;2;2;1;2;2;1;6,272;0;20;150;7;7;0;7;8;0;1
13;1;3;9;8;23;1;3;0;0;0;0;17;17;3;12;9;8;23;3;2;3;2;2;2;1;2;3;2;2,855;0;20;95;10;7;0;9;4;0;1
13;1;1;3;9;12;1;3;1;1;1;0;30;0;1;8;3;9;12;3;2;3;2;2;1;1;2;3;2;9,47;1;28;1050;4;4;1;9;4;1;1
13;1;1;4;10;5;1;3;0;0;0;0;17;17;1;8;4;10;5;3;3;3;2;2;2;1;2;2;2;3,464;1;23;300;5;7;3;1;5;0;0
13;1;3;11;11;17;1;3;1;0;0;1;0;37;3;12;11;11;17;3;2;3;2;2;1;1;2;3;2;10,827;0;23;250;5;2;0;9;1;1;1
13;1;1;3;12;9;1;3;1;1;0;1;0;30;1;8;3;12;9;3;2;2;2;2;1;1;2;3;1;5,726;0;21;250;8;9;3;9;4;0;1
13;1;3;13;13;3;1;3;1;1;1;0;30;0;3;12;13;13;3;3;2;3;2;2;1;1;2;1;1;1,841;1;23;300;5;7;1;9;6;1;1
13;1;2;6;14;15;1;3;1;1;1;1;30;30;2;8;6;14;15;3;2;3;2;2;1;1;2;2;1;3,167;0;23;170;5;5;0;9;4;0;1
13;1;2;6;15;14;1;3;1;1;1;1;30;30;2;8;6;15;14;3;2;3;2;2;1;1;2;2;1;4,509;0;19;400;5;4;1;9;4;0;1
13;1;2;5;16;19;1;3;1;1;1;1;30;30;2;8;5;16;19;3;2;3;2;2;1;1;2;3;1;5,866;0;21;350;8;3;0;9;4;1;1
13;1;3;11;17;11;1;3;0;1;1;0;37;0;3;12;11;17;11;3;2;3;2;2;2;1;2;2;3;9,47;0;20;100;5;7;0;8;1;0;1
13;1;1;2;18;20;1;3;0;0;0;0;17;17;1;8;2;18;20;3;3;3;2;2;1;1;2;3;1;3,9;0;23;500;3;6;0;9;4;1;1
13;1;2;5;19;16;1;3;1;1;1;1;30;30;2;8;5;19;16;3;2;3;2;2;2;1;2;3;1;4,119;1;21;200;5;5;1;8;4;0;1
13;1;1;2;20;18;1;3;0;0;0;0;17;17;1;8;2;20;18;3;2;2;2;2;2;1;2;1;1;2,247;1;22;450;4;7;0;9;6;1;1
13;1;3;10;21;26;1;3;1;1;1;1;30;30;3;12;10;21;26;3;2;2;2;2;1;1;2;3;2;4,946;1;20;400;6;7;0;9;5;0;1
13;1;2;8;22;2;1;3;1;1;1;1;30;30;2;8;8;22;2;3;2;3;2;2;1;1;2;2;1;6,443;1;25;400;5;6;0;9;4;0;1
13;1;3;9;23;8;1;3;0;0;0;0;17;17;3;12;9;23;8;3;2;3;2;2;1;1;2;3;1;1,982;0;23;300;6;7;0;9;8;1;1
13;1;1;1;24;1;1;3;1;1;1;1;30;30;1;8;1;24;1;3;2;2;2;2;2;1;2;2;1;5,663;0;20;100;8;5;0;9;5;0;1
13;1;2;7;25;27;1;3;0;0;0;1;17;37;2;8;7;25;27;3;2;3;2;2;2;1;2;3;1;8,768;0;22;300;5;7;0;9;1;1;1
13;1;3;10;26;21;1;3;1;1;1;1;30;30;3;12;10;26;21;3;2;3;2;2;1;1;2;2;1;3,963;1;20;150;9;8;0;9;6;0;1
13;1;2;7;27;25;1;3;0;0;1;0;37;17;2;8;7;27;25;3;2;2;2;2;2;1;2;2;2;19,22;0;19;300;5;4;4;9;5;1;0
13;1;3;14;28;7;1;3;0;0;0;0;17;17;3;12;14;28;7;3;2;3;2;2;2;1;2;3;1;8,534;0;21;300;5;2;5;8;5;0;1
13;1;1;1;1;24;1;4;1;1;1;1;30;30;1;8;1;1;24;4;2;3;2;2;1;1;2;3;1;2,886;0;19;450;4;7;0;9;4;1;1
13;1;2;8;2;22;1;4;1;1;1;1;30;30;2;8;8;2;22;4;2;2;2;2;2;1;2;2;3;23,79;0;21;200;6;7;0;9;4;0;1
13;1;3;13;3;13;1;4;1;1;1;1;30;30;3;12;13;3;13;4;2;3;2;2;1;1;2;3;1;2,84;1;20;100;3;5;0;6;6;0;1
13;1;3;12;4;6;1;4;1;1;1;1;30;30;3;12;12;4;6;4;2;3;2;2;2;1;1;2;2;1,982;0;26;700;8;7;0;9;1;1;0
13;1;1;4;5;10;1;4;0;0;0;0;17;17;1;8;4;5;10;4;2;3;2;2;2;1;2;3;2;3,308;1;22;200;6;6;4;9;5;0;1
13;1;3;12;6;4;1;4;1;1;1;1;30;30;3;12;12;6;4;4;2;3;2;2;1;1;2;3;2;4,509;0;18;600;5;3;0;9;4;1;1
13;1;3;14;7;28;1;4;0;0;1;0;37;17;3;12;14;7;28;4;2;3;2;2;2;1;2;2;1;14,228;0;20;150;7;7;0;7;8;0;1
13;1;3;9;8;23;1;4;0;0;0;0;17;17;3;12;9;8;23;4;2;3;2;2;2;1;2;3;2;4,446;0;20;95;10;7;0;9;4;0;1
13;1;1;3;9;12;1;4;1;1;0;1;0;30;1;8;3;9;12;4;2;3;2;2;1;1;2;3;2;7,722;1;28;1050;4;4;1;9;4;1;1
13;1;1;4;10;5;1;4;0;0;0;0;17;17;1;8;4;10;5;4;3;3;2;2;2;1;2;2;2;2,574;1;23;300;5;7;3;1;5;0;0
13;1;3;11;11;17;1;4;0;0;0;0;17;17;3;12;11;11;17;4;2;3;2;2;1;1;2;3;2;5,726;0;23;250;5;2;0;9;1;1;1
13;1;1;3;12;9;1;4;1;1;1;0;30;0;1;8;3;12;9;4;2;2;2;2;1;1;2;3;1;3,136;0;21;250;8;9;3;9;4;0;1
13;1;3;13;13;3;1;4;1;1;1;1;30;30;3;12;13;13;3;4;2;3;2;2;1;1;2;1;1;6,1;1;23;300;5;7;1;9;6;1;1
13;1;2;6;14;15;1;4;1;1;1;1;30;30;2;8;6;14;15;4;2;3;2;2;1;1;2;2;1;11,7;0;23;170;5;5;0;9;4;0;1
13;1;2;6;15;14;1;4;1;1;1;1;30;30;2;8;6;15;14;4;2;3;2;2;1;1;2;2;1;2,418;0;19;400;5;4;1;9;4;0;1
13;1;2;5;16;19;1;4;1;1;1;1;30;30;2;8;5;16;19;4;2;3;2;2;1;1;2;3;1;5,445;0;21;350;8;3;0;9;4;1;1
13;1;3;11;17;11;1;4;0;0;0;0;17;17;3;12;11;17;11;4;2;3;2;2;2;1;2;2;3;8,034;0;20;100;5;7;0;8;1;0;1
13;1;1;2;18;20;1;4;0;0;0;0;17;17;1;8;2;18;20;4;3;3;2;2;1;1;2;3;1;5,102;0;23;500;3;6;0;9;4;1;1
13;1;2;5;19;16;1;4;1;1;1;1;30;30;2;8;5;19;16;4;2;3;2;2;2;1;2;3;1;3,432;1;21;200;5;5;1;8;4;0;1
13;1;1;2;20;18;1;4;0;0;0;0;17;17;1;8;2;20;18;4;2;2;2;2;2;1;2;1;1;3,978;1;22;450;4;7;0;9;6;1;1
13;1;3;10;21;26;1;4;1;1;1;1;30;30;3;12;10;21;26;4;2;2;2;2;1;1;2;3;2;10,25;1;20;400;6;7;0;9;5;0;1
13;1;2;8;22;2;1;4;1;1;1;1;30;30;2;8;8;22;2;4;2;3;2;2;1;1;2;2;1;10,53;1;25;400;5;6;0;9;4;0;1
13;1;3;9;23;8;1;4;0;0;0;0;17;17;3;12;9;23;8;4;2;3;2;2;1;1;2;3;1;3,651;0;23;300;6;7;0;9;8;1;1
13;1;1;1;24;1;1;4;1;1;1;1;30;30;1;8;1;24;1;4;2;2;2;2;2;1;2;2;1;2,996;0;20;100;8;5;0;9;5;0;1
13;1;2;7;25;27;1;4;1;1;1;1;30;30;2;8;7;25;27;4;2;3;2;2;2;1;2;3;1;3,557;0;22;300;5;7;0;9;1;1;1
13;1;3;10;26;21;1;4;1;1;1;1;30;30;3;12;10;26;21;4;2;3;2;2;1;1;2;2;1;3,51;1;20;150;9;8;0;9;6;0;1
13;1;2;7;27;25;1;4;1;1;1;1;30;30;2;8;7;27;25;4;2;2;2;2;2;1;2;2;2;9,532;0;19;300;5;4;4;9;5;1;0
13;1;3;14;28;7;1;4;0;0;0;1;17;37;3;12;14;28;7;4;2;3;2;2;2;1;2;3;1;6,022;0;21;300;5;2;5;8;5;0;1
13;1;1;1;1;24;1;5;1;1;0;1;0;30;1;8;1;1;24;5;2;3;2;2;1;1;2;3;1;2,854;0;19;450;4;7;0;9;4;1;1
13;1;2;8;2;22;1;5;1;1;1;1;30;30;2;8;8;2;22;5;2;2;2;2;2;1;2;2;3;1,887;0;21;200;6;7;0;9;4;0;1
13;1;3;13;3;13;1;5;1;1;1;1;30;30;3;12;13;3;13;5;2;3;2;2;1;1;2;3;1;6,676;1;20;100;3;5;0;6;6;0;1
13;1;3;12;4;6;1;5;1;1;1;1;30;30;3;12;12;4;6;5;2;3;2;2;2;1;1;2;2;1,762;0;26;700;8;7;0;9;1;1;0
13;1;1;4;5;10;1;5;0;0;0;0;17;17;1;8;4;5;10;5;2;3;2;2;2;1;2;3;2;5,304;1;22;200;6;6;4;9;5;0;1
13;1;3;12;6;4;1;5;1;1;1;1;30;30;3;12;12;6;4;5;2;3;2;2;1;1;2;3;2;4,399;0;18;600;5;3;0;9;4;1;1
13;1;3;14;7;28;1;5;0;1;1;0;37;0;3;12;14;7;28;5;2;3;2;2;2;1;2;2;1;7,347;0;20;150;7;7;0;7;8;0;1
13;1;3;9;8;23;1;5;1;0;0;1;0;37;3;12;9;8;23;5;2;3;2;2;2;1;2;3;2;5,054;0;20;95;10;7;0;9;4;0;1
13;1;1;3;9;12;1;5;1;1;1;1;30;30;1;8;3;9;12;5;2;3;2;2;1;1;2;3;2;7,02;1;28;1050;4;4;1;9;4;1;1
13;1;1;4;10;5;1;5;0;0;0;0;17;17;1;8;4;10;5;5;3;3;2;2;2;1;2;2;2;3,104;1;23;300;5;7;3;1;5;0;0
13;1;3;11;11;17;1;5;0;0;0;0;17;17;3;12;11;11;17;5;2;3;2;2;1;1;2;3;2;8,689;0;23;250;5;2;0;9;1;1;1
13;1;1;3;12;9;1;5;1;1;1;1;30;30;1;8;3;12;9;5;2;2;2;2;1;1;2;3;1;3,822;0;21;250;8;9;3;9;4;0;1
13;1;3;13;13;3;1;5;1;1;1;1;30;30;3;12;13;13;3;5;2;3;2;2;1;1;2;1;1;7,441;1;23;300;5;7;1;9;6;1;1
13;1;2;6;14;15;1;5;1;1;0;1;0;30;2;8;6;14;15;5;2;3;2;2;1;1;2;2;1;3,104;0;23;170;5;5;0;9;4;0;1
13;1;2;6;15;14;1;5;1;1;1;0;30;0;2;8;6;15;14;5;2;3;2;2;1;1;2;2;1;2,324;0;19;400;5;4;1;9;4;0;1
13;1;2;5;16;19;1;5;1;1;1;1;30;30;2;8;5;16;19;5;2;3;2;2;1;1;2;3;1;9,999;0;21;350;8;3;0;9;4;1;1
13;1;3;11;17;11;1;5;0;0;0;0;17;17;3;12;11;17;11;5;2;3;2;2;2;1;2;2;3;8,002;0;20;100;5;7;0;8;1;0;1
13;1;1;2;18;20;1;5;0;0;0;0;17;17;1;8;2;18;20;5;3;3;2;2;1;1;2;3;1;5,257;0;23;500;3;6;0;9;4;1;1
13;1;2;5;19;16;1;5;1;1;1;1;30;30;2;8;5;19;16;5;2;3;2;2;2;1;2;3;1;5,584;1;21;200;5;5;1;8;4;0;1
13;1;1;2;20;18;1;5;0;0;0;0;17;17;1;8;2;20;18;5;2;2;2;2;2;1;2;1;1;3,931;1;22;450;4;7;0;9;6;1;1
13;1;3;10;21;26;1;5;1;1;1;1;30;30;3;12;10;21;26;5;2;2;2;2;1;1;2;3;2;3,182;1;20;400;6;7;0;9;5;0;1
13;1;2;8;22;2;1;5;1;1;1;1;30;30;2;8;8;22;2;5;2;3;2;2;1;1;2;2;1;7,254;1;25;400;5;6;0;9;4;0;1
13;1;3;9;23;8;1;5;0;1;1;0;37;0;3;12;9;23;8;5;2;3;2;2;1;1;2;3;1;2,308;0;23;300;6;7;0;9;8;1;1
13;1;1;1;24;1;1;5;1;1;1;0;30;0;1;8;1;24;1;5;2;2;2;2;2;1;2;2;1;3,759;0;20;100;8;5;0;9;5;0;1
13;1;2;7;25;27;1;5;1;1;1;1;30;30;2;8;7;25;27;5;2;3;2;2;2;1;2;3;1;4,664;0;22;300;5;7;0;9;1;1;1
13;1;3;10;26;21;1;5;1;1;1;1;30;30;3;12;10;26;21;5;2;3;2;2;1;1;2;2;1;4,165;1;20;150;9;8;0;9;6;0;1
13;1;2;7;27;25;1;5;1;1;1;1;30;30;2;8;7;27;25;5;2;2;2;2;2;1;2;2;2;4,804;0;19;300;5;4;4;9;5;1;0
13;1;3;14;28;7;1;5;1;0;0;1;0;37;3;12;14;28;7;5;2;3;2;2;2;1;2;3;1;5,319;0;21;300;5;2;5;8;5;0;1
13;1;1;1;1;24;1;6;1;1;1;1;30;30;1;8;1;1;24;6;2;3;2;2;1;1;2;3;1;2,808;0;19;450;4;7;0;9;4;1;1
13;1;2;8;2;22;1;6;1;1;1;1;30;30;2;8;8;2;22;6;2;2;2;2;2;1;2;2;3;3,884;0;21;200;6;7;0;9;4;0;1
13;1;3;13;3;13;1;6;1;1;0;1;0;30;3;12;13;3;13;6;2;3;2;2;1;1;2;3;1;6,209;1;20;100;3;5;0;6;6;0;1
13;1;3;12;4;6;1;6;1;1;1;1;30;30;3;12;12;4;6;6;2;3;2;2;2;1;1;2;2;2,09;0;26;700;8;7;0;9;1;1;0
13;1;1;4;5;10;1;6;0;0;0;0;17;17;1;8;4;5;10;6;2;3;2;2;2;1;2;3;2;3,354;1;22;200;6;6;4;9;5;0;1
13;1;3;12;6;4;1;6;1;1;1;1;30;30;3;12;12;6;4;6;2;3;2;2;1;1;2;3;2;5,023;0;18;600;5;3;0;9;4;1;1
13;1;3;14;7;28;1;6;0;0;1;0;37;17;3;12;14;7;28;6;2;3;2;2;2;1;2;2;1;9,999;0;20;150;7;7;0;7;8;0;1
13;1;3;9;8;23;1;6;0;0;0;0;17;17;3;12;9;8;23;6;2;3;2;2;2;1;2;3;2;6,443;0;20;95;10;7;0;9;4;0;1
13;1;1;3;9;12;1;6;1;1;1;1;30;30;1;8;3;9;12;6;2;3;2;2;1;1;2;3;2;10,421;1;28;1050;4;4;1;9;4;1;1
13;1;1;4;10;5;1;6;0;0;0;0;17;17;1;8;4;10;5;6;3;3;2;2;2;1;2;2;2;2,402;1;23;300;5;7;3;1;5;0;0
13;1;3;11;11;17;1;6;1;1;1;0;30;0;3;12;11;11;17;6;2;3;2;2;1;1;2;3;2;6,879;0;23;250;5;2;0;9;1;1;1
13;1;1;3;12;9;1;6;1;1;1;1;30;30;1;8;3;12;9;6;2;2;2;2;1;1;2;3;1;4,508;0;21;250;8;9;3;9;4;0;1
13;1;3;13;13;3;1;6;1;1;1;0;30;0;3;12;13;13;3;6;2;3;2;2;1;1;2;1;1;2,979;1;23;300;5;7;1;9;6;1;1
13;1;2;6;14;15;1;6;0;1;1;1;37;30;2;8;6;14;15;6;2;3;2;2;1;1;2;2;1;3,822;0;23;170;5;5;0;9;4;0;1
13;1;2;6;15;14;1;6;1;0;1;1;30;37;2;8;6;15;14;6;2;3;2;2;1;1;2;2;1;2,324;0;19;400;5;4;1;9;4;0;1
13;1;2;5;16;19;1;6;1;1;1;1;30;30;2;8;5;16;19;6;2;3;2;2;1;1;2;3;1;5,195;0;21;350;8;3;0;9;4;1;1
13;1;3;11;17;11;1;6;1;1;0;1;0;30;3;12;11;17;11;6;2;3;2;2;2;1;2;2;3;9,672;0;20;100;5;7;0;8;1;0;1
13;1;1;2;18;20;1;6;0;0;0;0;17;17;1;8;2;18;20;6;3;3;2;2;1;1;2;3;1;5,959;0;23;500;3;6;0;9;4;1;1
13;1;2;5;19;16;1;6;1;1;1;1;30;30;2;8;5;19;16;6;2;3;2;2;2;1;2;3;1;2,917;1;21;200;5;5;1;8;4;0;1
13;1;1;2;20;18;1;6;0;0;0;0;17;17;1;8;2;20;18;6;2;2;2;2;2;1;2;1;1;3,401;1;22;450;4;7;0;9;6;1;1
13;1;3;10;21;26;1;6;1;1;1;1;30;30;3;12;10;21;26;6;2;2;2;2;1;1;2;3;2;2,948;1;20;400;6;7;0;9;5;0;1
13;1;2;8;22;2;1;6;1;1;1;1;30;30;2;8;8;22;2;6;2;3;2;2;1;1;2;2;1;3,026;1;25;400;5;6;0;9;4;0;1
13;1;3;9;23;8;1;6;0;0;0;0;17;17;3;12;9;23;8;6;2;3;2;2;1;1;2;3;1;2,293;0;23;300;6;7;0;9;8;1;1
13;1;1;1;24;1;1;6;1;1;1;1;30;30;1;8;1;24;1;6;2;2;2;2;2;1;2;2;1;2,199;0;20;100;8;5;0;9;5;0;1
13;1;2;7;25;27;1;6;1;1;1;1;30;30;2;8;7;25;27;6;2;3;2;2;2;1;2;3;1;4,898;0;22;300;5;7;0;9;1;1;1
13;1;3;10;26;21;1;6;1;1;1;1;30;30;3;12;10;26;21;6;2;3;2;2;1;1;2;2;1;4,212;1;20;150;9;8;0;9;6;0;1
13;1;2;7;27;25;1;6;1;1;1;1;30;30;2;8;7;27;25;6;2;2;2;2;2;1;2;2;2;3,666;0;19;300;5;4;4;9;5;1;0
13;1;3;14;28;7;1;6;0;0;0;1;17;37;3;12;14;28;7;6;2;3;2;2;2;1;2;3;1;3,432;0;21;300;5;2;5;8;5;0;1
13;1;1;1;1;24;1;7;1;1;0;1;0;30;1;8;1;1;24;7;2;3;2;2;1;1;2;3;1;3,994;0;19;450;4;7;0;9;4;1;1
13;1;2;8;2;22;1;7;1;1;1;1;30;30;2;8;8;2;22;7;2;2;2;2;2;1;2;2;3;3,261;0;21;200;6;7;0;9;4;0;1
13;1;3;13;3;13;1;7;1;1;1;1;30;30;3;12;13;3;13;7;2;3;2;2;1;1;2;3;1;2,543;1;20;100;3;5;0;6;6;0;1
13;1;3;12;4;6;1;7;1;1;1;1;30;30;3;12;12;4;6;7;2;3;2;2;2;1;1;2;2;2,075;0;26;700;8;7;0;9;1;1;0
13;1;1;4;5;10;1;7;0;0;0;0;17;17;1;8;4;5;10;7;2;3;2;2;2;1;2;3;2;2,668;1;22;200;6;6;4;9;5;0;1
13;1;3;12;6;4;1;7;1;1;1;1;30;30;3;12;12;6;4;7;2;3;2;2;1;1;2;3;2;8,393;0;18;600;5;3;0;9;4;1;1
13;1;3;14;7;28;1;7;0;0;0;0;17;17;3;12;14;7;28;7;2;3;2;2;2;1;2;2;1;5,835;0;20;150;7;7;0;7;8;0;1
13;1;3;9;8;23;1;7;0;0;0;0;17;17;3;12;9;8;23;7;2;3;2;2;2;1;2;3;2;3,666;0;20;95;10;7;0;9;4;0;1
13;1;1;3;9;12;1;7;1;1;0;0;0;0;1;8;3;9;12;7;2;3;2;2;1;1;2;3;2;8,143;1;28;1050;4;4;1;9;4;1;1
13;1;1;4;10;5;1;7;0;0;0;0;17;17;1;8;4;10;5;7;3;3;2;2;2;1;2;2;2;3,541;1;23;300;5;7;3;1;5;0;0
13;1;3;11;11;17;1;7;0;0;0;0;17;17;3;12;11;11;17;7;2;3;2;2;1;1;2;3;2;9,969;0;23;250;5;2;0;9;1;1;1
13;1;1;3;12;9;1;7;1;1;0;0;0;0;1;8;3;12;9;7;2;2;2;2;1;1;2;3;1;2,886;0;21;250;8;9;3;9;4;0;1
13;1;3;13;13;3;1;7;1;1;1;1;30;30;3;12;13;13;3;7;2;3;2;2;1;1;2;1;1;2,73;1;23;300;5;7;1;9;6;1;1
13;1;2;6;14;15;1;7;1;1;1;0;30;0;2;8;6;14;15;7;2;3;2;2;1;1;2;2;1;3,557;0;23;170;5;5;0;9;4;0;1
13;1;2;6;15;14;1;7;1;1;0;1;0;30;2;8;6;15;14;7;2;3;2;2;1;1;2;2;1;3,588;0;19;400;5;4;1;9;4;0;1
13;1;2;5;16;19;1;7;1;1;1;1;30;30;2;8;5;16;19;7;2;3;2;2;1;1;2;3;1;4,15;0;21;350;8;3;0;9;4;1;1
13;1;3;11;17;11;1;7;0;0;0;0;17;17;3;12;11;17;11;7;2;3;2;2;2;1;2;2;3;5,757;0;20;100;5;7;0;8;1;0;1
13;1;1;2;18;20;1;7;0;0;0;0;17;17;1;8;2;18;20;7;3;3;2;2;1;1;2;3;1;4,571;0;23;500;3;6;0;9;4;1;1
13;1;2;5;19;16;1;7;1;1;1;1;30;30;2;8;5;19;16;7;2;3;2;2;2;1;2;3;1;3,838;1;21;200;5;5;1;8;4;0;1
13;1;1;2;20;18;1;7;0;0;0;0;17;17;1;8;2;20;18;7;2;2;2;2;2;1;2;1;1;3,167;1;22;450;4;7;0;9;6;1;1
13;1;3;10;21;26;1;7;1;1;1;0;30;0;3;12;10;21;26;7;2;2;2;2;1;1;2;3;2;3,417;1;20;400;6;7;0;9;5;0;1
13;1;2;8;22;2;1;7;1;1;1;1;30;30;2;8;8;22;2;7;2;3;2;2;1;1;2;2;1;7,317;1;25;400;5;6;0;9;4;0;1
13;1;3;9;23;8;1;7;0;0;0;0;17;17;3;12;9;23;8;7;2;3;2;2;1;1;2;3;1;3,011;0;23;300;6;7;0;9;8;1;1
13;1;1;1;24;1;1;7;1;1;1;0;30;0;1;8;1;24;1;7;2;2;2;2;2;1;2;2;1;3,495;0;20;100;8;5;0;9;5;0;1
13;1;2;7;25;27;1;7;1;1;1;1;30;30;2;8;7;25;27;7;2;3;2;2;2;1;2;3;1;3,729;0;22;300;5;7;0;9;1;1;1
13;1;3;10;26;21;1;7;1;1;0;1;0;30;3;12;10;26;21;7;2;3;2;2;1;1;2;2;1;2,403;1;20;150;9;8;0;9;6;0;1
13;1;2;7;27;25;1;7;1;1;1;1;30;30;2;8;7;27;25;7;2;2;2;2;2;1;2;2;2;3,978;0;19;300;5;4;4;9;5;1;0
13;1;3;14;28;7;1;7;0;0;0;0;17;17;3;12;14;28;7;7;2;3;2;2;2;1;2;3;1;2,59;0;21;300;5;2;5;8;5;0;1
13;1;1;1;1;24;1;8;1;0;0;1;0;37;1;8;1;1;24;8;2;3;2;2;1;1;2;3;1;2,184;0;19;450;4;7;0;9;4;1;1
13;1;2;8;2;22;1;8;1;1;1;1;30;30;2;8;8;2;22;8;2;2;2;2;2;1;2;2;3;2,386;0;21;200;6;7;0;9;4;0;1
13;1;3;13;3;13;1;8;1;1;1;1;30;30;3;12;13;3;13;8;2;3;2;2;1;1;2;3;1;4,508;1;20;100;3;5;0;6;6;0;1
13;1;3;12;4;6;1;8;1;1;1;1;30;30;3;12;12;4;6;8;2;3;2;2;2;1;1;2;2;1,856;0;26;700;8;7;0;9;1;1;0
13;1;1;4;5;10;1;8;0;0;1;0;37;17;1;8;4;5;10;8;2;3;2;2;2;1;2;3;2;4,477;1;22;200;6;6;4;9;5;0;1
13;1;3;12;6;4;1;8;1;1;1;1;30;30;3;12;12;6;4;8;2;3;2;2;1;1;2;3;2;2,23;0;18;600;5;3;0;9;4;1;1
13;1;3;14;7;28;1;8;1;1;1;1;30;30;3;12;14;7;28;8;2;3;2;2;2;1;2;2;1;3,744;0;20;150;7;7;0;7;8;0;1
13;1;3;9;8;23;1;8;0;0;0;0;17;17;3;12;9;8;23;8;2;3;2;2;2;1;2;3;2;4,258;0;20;95;10;7;0;9;4;0;1
13;1;1;3;9;12;1;8;1;1;0;1;0;30;1;8;3;9;12;8;2;3;2;2;1;1;2;3;2;9,921;1;28;1050;4;4;1;9;4;1;1
13;1;1;4;10;5;1;8;0;0;0;1;17;37;1;8;4;10;5;8;3;3;2;2;2;1;2;2;2;2,636;1;23;300;5;7;3;1;5;0;0
13;1;3;11;11;17;1;8;1;1;1;1;30;30;3;12;11;11;17;8;2;3;2;2;1;1;2;3;2;1,903;0;23;250;5;2;0;9;1;1;1
13;1;1;3;12;9;1;8;1;1;1;0;30;0;1;8;3;12;9;8;2;2;2;2;1;1;2;3;1;4,04;0;21;250;8;9;3;9;4;0;1
13;1;3;13;13;3;1;8;1;1;1;1;30;30;3;12;13;13;3;8;2;3;2;2;1;1;2;1;1;2,854;1;23;300;5;7;1;9;6;1;1
13;1;2;6;14;15;1;8;1;1;1;1;30;30;2;8;6;14;15;8;2;3;2;2;1;1;2;2;1;4,43;0;23;170;5;5;0;9;4;0;1
13;1;2;6;15;14;1;8;1;1;1;1;30;30;2;8;6;15;14;8;2;3;2;2;1;1;2;2;1;4,446;0;19;400;5;4;1;9;4;0;1
13;1;2;5;16;19;1;8;1;1;1;1;30;30;2;8;5;16;19;8;2;3;2;2;1;1;2;3;1;4,992;0;21;350;8;3;0;9;4;1;1
13;1;3;11;17;11;1;8;1;1;1;1;30;30;3;12;11;17;11;8;2;3;2;2;2;1;2;2;3;8,486;0;20;100;5;7;0;8;1;0;1
13;1;1;2;18;20;1;8;0;0;0;0;17;17;1;8;2;18;20;8;3;3;2;2;1;1;2;3;1;4,508;0;23;500;3;6;0;9;4;1;1
13;1;2;5;19;16;1;8;1;1;1;1;30;30;2;8;5;19;16;8;2;3;2;2;2;1;2;3;1;5,662;1;21;200;5;5;1;8;4;0;1
13;1;1;2;20;18;1;8;0;0;0;0;17;17;1;8;2;20;18;8;2;2;2;2;2;1;2;1;1;2,277;1;22;450;4;7;0;9;6;1;1
13;1;3;10;21;26;1;8;1;1;1;0;30;0;3;12;10;21;26;8;2;2;2;2;1;1;2;3;2;2,402;1;20;400;6;7;0;9;5;0;1
13;1;2;8;22;2;1;8;1;1;1;1;30;30;2;8;8;22;2;8;2;3;2;2;1;1;2;2;1;4,586;1;25;400;5;6;0;9;4;0;1
13;1;3;9;23;8;1;8;0;0;0;0;17;17;3;12;9;23;8;8;2;3;2;2;1;1;2;3;1;4,726;0;23;300;6;7;0;9;8;1;1
13;1;1;1;24;1;1;8;0;1;1;0;37;0;1;8;1;24;1;8;2;2;2;2;2;1;2;2;1;22,698;0;20;100;8;5;0;9;5;0;1
13;1;2;7;25;27;1;8;1;1;1;1;30;30;2;8;7;25;27;8;2;3;2;2;2;1;2;3;1;4,368;0;22;300;5;7;0;9;1;1;1
13;1;3;10;26;21;1;8;1;1;0;1;0;30;3;12;10;26;21;8;2;3;2;2;1;1;2;2;1;3,541;1;20;150;9;8;0;9;6;0;1
13;1;2;7;27;25;1;8;1;1;1;1;30;30;2;8;7;27;25;8;2;2;2;2;2;1;2;2;2;4,118;0;19;300;5;4;4;9;5;1;0
13;1;3;14;28;7;1;8;1;1;1;1;30;30;3;12;14;28;7;8;2;3;2;2;2;1;2;3;1;3,962;0;21;300;5;2;5;8;5;0;1
13;1;1;1;1;24;1;9;0;1;1;0;37;0;1;8;1;1;24;9;2;3;2;2;1;1;2;3;1;1,856;0;19;450;4;7;0;9;4;1;1
13;1;2;8;2;22;1;9;1;1;1;1;30;30;2;8;8;2;22;9;2;2;2;2;2;1;2;2;3;2,636;0;21;200;6;7;0;9;4;0;1
13;1;3;13;3;13;1;9;1;1;1;1;30;30;3;12;13;3;13;9;2;3;2;2;1;1;2;3;1;4,898;1;20;100;3;5;0;6;6;0;1
13;1;3;12;4;6;1;9;1;1;1;1;30;30;3;12;12;4;6;9;2;3;2;2;2;1;1;2;2;2,917;0;26;700;8;7;0;9;1;1;0
13;1;1;4;5;10;1;9;0;0;0;0;17;17;1;8;4;5;10;9;2;3;2;2;2;1;2;3;2;3,416;1;22;200;6;6;4;9;5;0;1
13;1;3;12;6;4;1;9;1;1;1;1;30;30;3;12;12;6;4;9;2;3;2;2;1;1;2;3;2;4,446;0;18;600;5;3;0;9;4;1;1
13;1;3;14;7;28;1;9;1;1;1;1;30;30;3;12;14;7;28;9;2;3;2;2;2;1;2;2;1;4,165;0;20;150;7;7;0;7;8;0;1
13;1;3;9;8;23;1;9;1;1;1;1;30;30;3;12;9;8;23;9;2;3;2;2;2;1;2;3;2;3,229;0;20;95;10;7;0;9;4;0;1
13;1;1;3;9;12;1;9;1;1;1;1;30;30;1;8;3;9;12;9;2;3;2;2;1;1;2;3;2;8,86;1;28;1050;4;4;1;9;4;1;1
13;1;1;4;10;5;1;9;0;0;0;0;17;17;1;8;4;10;5;9;3;3;2;2;2;1;2;2;2;3,057;1;23;300;5;7;3;1;5;0;0
13;1;3;11;11;17;1;9;0;0;1;0;37;17;3;12;11;11;17;9;2;3;2;2;1;1;2;3;2;7,129;0;23;250;5;2;0;9;1;1;1
13;1;1;3;12;9;1;9;1;1;1;1;30;30;1;8;3;12;9;9;2;2;2;2;1;1;2;3;1;5,538;0;21;250;8;9;3;9;4;0;1
13;1;3;13;13;3;1;9;1;1;1;1;30;30;3;12;13;13;3;9;2;3;2;2;1;1;2;1;1;4,087;1;23;300;5;7;1;9;6;1;1
13;1;2;6;14;15;1;9;1;1;1;1;30;30;2;8;6;14;15;9;2;3;2;2;1;1;2;2;1;3,01;0;23;170;5;5;0;9;4;0;1
13;1;2;6;15;14;1;9;1;1;1;1;30;30;2;8;6;15;14;9;2;3;2;2;1;1;2;2;1;1,794;0;19;400;5;4;1;9;4;0;1
13;1;2;5;16;19;1;9;1;1;1;0;30;0;2;8;5;16;19;9;2;3;2;2;1;1;2;3;1;4,617;0;21;350;8;3;0;9;4;1;1
13;1;3;11;17;11;1;9;0;0;0;1;17;37;3;12;11;17;11;9;2;3;2;2;2;1;2;2;3;10,951;0;20;100;5;7;0;8;1;0;1
13;1;1;2;18;20;1;9;0;0;0;0;17;17;1;8;2;18;20;9;3;3;2;2;1;1;2;3;1;6,411;0;23;500;3;6;0;9;4;1;1
13;1;2;5;19;16;1;9;1;1;0;1;0;30;2;8;5;19;16;9;2;3;2;2;2;1;2;3;1;2,152;1;21;200;5;5;1;8;4;0;1
13;1;1;2;20;18;1;9;0;0;0;0;17;17;1;8;2;20;18;9;2;2;2;2;2;1;2;1;1;2,839;1;22;450;4;7;0;9;6;1;1
13;1;3;10;21;26;1;9;1;1;1;1;30;30;3;12;10;21;26;9;2;2;2;2;1;1;2;3;2;2,496;1;20;400;6;7;0;9;5;0;1
13;1;2;8;22;2;1;9;1;1;1;1;30;30;2;8;8;22;2;9;2;3;2;2;1;1;2;2;1;3,4;1;25;400;5;6;0;9;4;0;1
13;1;3;9;23;8;1;9;1;1;1;1;30;30;3;12;9;23;8;9;2;3;2;2;1;1;2;3;1;1,575;0;23;300;6;7;0;9;8;1;1
13;1;1;1;24;1;1;9;1;0;0;1;0;37;1;8;1;24;1;9;2;2;2;2;2;1;2;2;1;8,002;0;20;100;8;5;0;9;5;0;1
13;1;2;7;25;27;1;9;1;1;1;1;30;30;2;8;7;25;27;9;2;3;2;2;2;1;2;3;1;3,322;0;22;300;5;7;0;9;1;1;1
13;1;3;10;26;21;1;9;1;1;1;1;30;30;3;12;10;26;21;9;2;3;2;2;1;1;2;2;1;4,555;1;20;150;9;8;0;9;6;0;1
13;1;2;7;27;25;1;9;1;1;1;1;30;30;2;8;7;27;25;9;2;2;2;2;2;1;2;2;2;3,447;0;19;300;5;4;4;9;5;1;0
13;1;3;14;28;7;1;9;1;1;1;1;30;30;3;12;14;28;7;9;2;3;2;2;2;1;2;3;1;4,789;0;21;300;5;2;5;8;5;0;1
13;1;1;1;1;24;1;10;1;1;1;1;30;30;1;8;1;1;24;10;2;3;2;2;1;1;2;3;1;2,044;0;19;450;4;7;0;9;4;1;1
13;1;2;8;2;22;1;10;1;1;1;1;30;30;2;8;8;2;22;10;2;2;2;2;2;1;2;2;3;3,401;0;21;200;6;7;0;9;4;0;1
13;1;3;13;3;13;1;10;1;1;1;1;30;30;3;12;13;3;13;10;2;3;2;2;1;1;2;3;1;2,496;1;20;100;3;5;0;6;6;0;1
13;1;3;12;4;6;1;10;1;1;1;1;30;30;3;12;12;4;6;10;2;3;2;2;2;1;1;2;2;23,213;0;26;700;8;7;0;9;1;1;0
13;1;1;4;5;10;1;10;0;0;0;0;17;17;1;8;4;5;10;10;2;3;2;2;2;1;2;3;2;4,368;1;22;200;6;6;4;9;5;0;1
13;1;3;12;6;4;1;10;1;1;1;1;30;30;3;12;12;6;4;10;2;3;2;2;1;1;2;3;2;5,835;0;18;600;5;3;0;9;4;1;1
13;1;3;14;7;28;1;10;1;1;0;1;0;30;3;12;14;7;28;10;2;3;2;2;2;1;2;2;1;4,727;0;20;150;7;7;0;7;8;0;1
13;1;3;9;8;23;1;10;1;1;1;1;30;30;3;12;9;8;23;10;2;3;2;2;2;1;2;3;2;2,091;0;20;95;10;7;0;9;4;0;1
13;1;1;3;9;12;1;10;1;1;1;1;30;30;1;8;3;9;12;10;2;3;2;2;1;1;2;3;2;19,453;1;28;1050;4;4;1;9;4;1;1
13;1;1;4;10;5;1;10;0;0;0;0;17;17;1;8;4;10;5;10;3;3;2;2;2;1;2;2;2;2,605;1;23;300;5;7;3;1;5;0;0
13;1;3;11;11;17;1;10;0;1;1;0;37;0;3;12;11;11;17;10;2;3;2;2;1;1;2;3;2;4,134;0;23;250;5;2;0;9;1;1;1
13;1;1;3;12;9;1;10;1;1;1;1;30;30;1;8;3;12;9;10;2;2;2;2;1;1;2;3;1;3,261;0;21;250;8;9;3;9;4;0;1
13;1;3;13;13;3;1;10;1;1;1;1;30;30;3;12;13;13;3;10;2;3;2;2;1;1;2;1;1;2,715;1;23;300;5;7;1;9;6;1;1
13;1;2;6;14;15;1;10;1;1;1;1;30;30;2;8;6;14;15;10;2;3;2;2;1;1;2;2;1;2,964;0;23;170;5;5;0;9;4;0;1
13;1;2;6;15;14;1;10;1;1;1;1;30;30;2;8;6;15;14;10;2;3;2;2;1;1;2;2;1;3,775;0;19;400;5;4;1;9;4;0;1
13;1;2;5;16;19;1;10;1;1;1;1;30;30;2;8;5;16;19;10;2;3;2;2;1;1;2;3;1;5,491;0;21;350;8;3;0;9;4;1;1
13;1;3;11;17;11;1;10;1;0;0;1;0;37;3;12;11;17;11;10;2;3;2;2;2;1;2;2;3;8,658;0;20;100;5;7;0;8;1;0;1
13;1;1;2;18;20;1;10;0;0;0;0;17;17;1;8;2;18;20;10;3;3;2;2;1;1;2;3;1;4,649;0;23;500;3;6;0;9;4;1;1
13;1;2;5;19;16;1;10;1;1;1;1;30;30;2;8;5;19;16;10;2;3;2;2;2;1;2;3;1;5,569;1;21;200;5;5;1;8;4;0;1
13;1;1;2;20;18;1;10;0;0;0;0;17;17;1;8;2;20;18;10;2;2;2;2;2;1;2;1;1;3,463;1;22;450;4;7;0;9;6;1;1
13;1;3;10;21;26;1;10;1;1;1;0;30;0;3;12;10;21;26;10;2;2;2;2;1;1;2;3;2;3,183;1;20;400;6;7;0;9;5;0;1
13;1;2;8;22;2;1;10;1;1;1;1;30;30;2;8;8;22;2;10;2;3;2;2;1;1;2;2;1;3,807;1;25;400;5;6;0;9;4;0;1
13;1;3;9;23;8;1;10;1;1;1;1;30;30;3;12;9;23;8;10;2;3;2;2;1;1;2;3;1;3,12;0;23;300;6;7;0;9;8;1;1
13;1;1;1;24;1;1;10;1;1;1;1;30;30;1;8;1;24;1;10;2;2;2;2;2;1;2;2;1;2,2;0;20;100;8;5;0;9;5;0;1
13;1;2;7;25;27;1;10;1;1;1;1;30;30;2;8;7;25;27;10;2;3;2;2;2;1;2;3;1;6,069;0;22;300;5;7;0;9;1;1;1
13;1;3;10;26;21;1;10;1;1;0;1;0;30;3;12;10;26;21;10;2;3;2;2;1;1;2;2;1;3,214;1;20;150;9;8;0;9;6;0;1
13;1;2;7;27;25;1;10;1;1;1;1;30;30;2;8;7;27;25;10;2;2;2;2;2;1;2;2;2;5,991;0;19;300;5;4;4;9;5;1;0
13;1;3;14;28;7;1;10;1;1;1;0;30;0;3;12;14;28;7;10;2;3;2;2;2;1;2;3;1;4,259;0;21;300;5;2;5;8;5;0;1
13;1;1;1;1;24;1;11;1;1;1;1;30;30;1;8;1;1;24;11;2;3;2;2;1;1;2;3;1;4,227;0;19;450;4;7;0;9;4;1;1
13;1;2;8;2;22;1;11;1;1;1;1;30;30;2;8;8;2;22;11;2;2;2;2;2;1;2;2;3;3,728;0;21;200;6;7;0;9;4;0;1
13;1;3;13;3;13;1;11;1;1;1;1;30;30;3;12;13;3;13;11;2;3;2;2;1;1;2;3;1;4,492;1;20;100;3;5;0;6;6;0;1
13;1;3;12;4;6;1;11;1;1;1;1;30;30;3;12;12;4;6;11;2;3;2;2;2;1;1;2;2;3,244;0;26;700;8;7;0;9;1;1;0
13;1;1;4;5;10;1;11;0;0;0;0;17;17;1;8;4;5;10;11;2;3;2;2;2;1;2;3;2;4,321;1;22;200;6;6;4;9;5;0;1
13;1;3;12;6;4;1;11;1;1;1;1;30;30;3;12;12;6;4;11;2;3;2;2;1;1;2;3;2;5,272;0;18;600;5;3;0;9;4;1;1
13;1;3;14;7;28;1;11;1;1;1;1;30;30;3;12;14;7;28;11;2;3;2;2;2;1;2;2;1;7,909;0;20;150;7;7;0;7;8;0;1
13;1;3;9;8;23;1;11;1;1;1;1;30;30;3;12;9;8;23;11;2;3;2;2;2;1;2;3;2;3,65;0;20;95;10;7;0;9;4;0;1
13;1;1;3;9;12;1;11;1;1;1;1;30;30;1;8;3;9;12;11;2;3;2;2;1;1;2;3;2;4,555;1;28;1050;4;4;1;9;4;1;1
13;1;1;4;10;5;1;11;0;0;0;0;17;17;1;8;4;10;5;11;3;3;2;2;2;1;2;2;2;3,244;1;23;300;5;7;3;1;5;0;0
13;1;3;11;11;17;1;11;1;1;1;1;30;30;3;12;11;11;17;11;2;3;2;2;1;1;2;3;2;1,622;0;23;250;5;2;0;9;1;1;1
13;1;1;3;12;9;1;11;1;1;1;1;30;30;1;8;3;12;9;11;2;2;2;2;1;1;2;3;1;5,335;0;21;250;8;9;3;9;4;0;1
13;1;3;13;13;3;1;11;1;1;1;1;30;30;3;12;13;13;3;11;2;3;2;2;1;1;2;1;1;3,915;1;23;300;5;7;1;9;6;1;1
13;1;2;6;14;15;1;11;1;1;1;1;30;30;2;8;6;14;15;11;2;3;2;2;1;1;2;2;1;3,244;0;23;170;5;5;0;9;4;0;1
13;1;2;6;15;14;1;11;1;1;1;1;30;30;2;8;6;15;14;11;2;3;2;2;1;1;2;2;1;3,322;0;19;400;5;4;1;9;4;0;1
13;1;2;5;16;19;1;11;1;1;1;1;30;30;2;8;5;16;19;11;2;3;2;2;1;1;2;3;1;4,321;0;21;350;8;3;0;9;4;1;1
13;1;3;11;17;11;1;11;1;1;1;1;30;30;3;12;11;17;11;11;2;3;2;2;2;1;2;2;3;5,101;0;20;100;5;7;0;8;1;0;1
13;1;1;2;18;20;1;11;0;0;0;0;17;17;1;8;2;18;20;11;3;3;2;2;1;1;2;3;1;5,163;0;23;500;3;6;0;9;4;1;1
13;1;2;5;19;16;1;11;1;1;1;1;30;30;2;8;5;19;16;11;2;3;2;2;2;1;2;3;1;2,73;1;21;200;5;5;1;8;4;0;1
13;1;1;2;20;18;1;11;0;0;0;0;17;17;1;8;2;20;18;11;2;2;2;2;2;1;2;1;1;6,24;1;22;450;4;7;0;9;6;1;1
13;1;3;10;21;26;1;11;1;1;1;1;30;30;3;12;10;21;26;11;2;2;2;2;1;1;2;3;2;3,369;1;20;400;6;7;0;9;5;0;1
13;1;2;8;22;2;1;11;1;1;1;1;30;30;2;8;8;22;2;11;2;3;2;2;1;1;2;2;1;3,4;1;25;400;5;6;0;9;4;0;1
13;1;3;9;23;8;1;11;1;1;1;1;30;30;3;12;9;23;8;11;2;3;2;2;1;1;2;3;1;3,541;0;23;300;6;7;0;9;8;1;1
13;1;1;1;24;1;1;11;1;1;1;1;30;30;1;8;1;24;1;11;2;2;2;2;2;1;2;2;1;9,048;0;20;100;8;5;0;9;5;0;1
13;1;2;7;25;27;1;11;1;1;1;1;30;30;2;8;7;25;27;11;2;3;2;2;2;1;2;3;1;2,137;0;22;300;5;7;0;9;1;1;1
13;1;3;10;26;21;1;11;1;1;1;1;30;30;3;12;10;26;21;11;2;3;2;2;1;1;2;2;1;7,082;1;20;150;9;8;0;9;6;0;1
13;1;2;7;27;25;1;11;1;1;1;1;30;30;2;8;7;27;25;11;2;2;2;2;2;1;2;2;2;7,004;0;19;300;5;4;4;9;5;1;0
13;1;3;14;28;7;1;11;1;1;1;1;30;30;3;12;14;28;7;11;2;3;2;2;2;1;2;3;1;4,726;0;21;300;5;2;5;8;5;0;1
13;1;1;16;1;20;2;1;1;1;1;1;30;30;1;8;2;1;20;12;2;3;2;2;1;1;2;3;1;3,198;0;19;450;4;7;0;9;4;1;1
13;1;2;22;2;25;2;1;1;1;1;1;30;30;2;8;8;2;25;12;2;2;2;2;2;1;2;2;3;2,356;0;21;200;6;7;0;9;4;0;1
13;1;3;26;3;4;2;1;1;1;1;1;30;30;3;12;12;3;4;12;2;3;2;2;1;1;2;3;1;4,571;1;20;100;3;5;0;6;6;0;1
13;1;3;26;4;3;2;1;1;1;1;1;30;30;3;12;12;4;3;12;2;3;2;2;2;1;1;2;2;2,886;0;26;700;8;7;0;9;1;1;0
13;1;1;17;5;9;2;1;0;1;1;0;37;0;1;8;3;5;9;12;2;3;2;2;2;1;2;3;2;11,794;1;22;200;6;6;4;9;5;0;1
13;1;3;28;6;7;2;1;1;1;1;1;30;30;3;12;14;6;7;12;2;3;2;2;1;1;2;3;2;4,041;0;18;600;5;3;0;9;4;1;1
13;1;3;28;7;6;2;1;1;1;1;1;30;30;3;12;14;7;6;12;2;3;2;2;2;1;2;2;1;4,634;0;20;150;7;7;0;7;8;0;1
13;1;3;23;8;21;2;1;1;1;1;1;30;30;3;12;9;8;21;12;2;3;2;2;2;1;2;3;2;5,164;0;20;95;10;7;0;9;4;0;1
13;1;1;17;9;5;2;1;1;0;0;1;0;37;1;8;3;9;5;12;2;3;2;2;1;1;2;3;2;7,239;1;28;1050;4;4;1;9;4;1;1
13;1;1;18;10;12;2;1;1;1;1;0;30;0;1;8;4;10;12;12;3;3;2;2;2;1;2;2;2;4,68;1;23;300;5;7;3;1;5;0;0
13;1;3;24;11;26;2;1;1;1;1;1;30;30;3;12;10;11;26;12;2;3;2;2;1;1;2;3;2;5,055;0;23;250;5;2;0;9;1;1;1
13;1;1;18;12;10;2;1;1;1;0;1;0;30;1;8;4;12;10;12;2;2;2;2;1;1;2;3;1;2,699;0;21;250;8;9;3;9;4;0;1
13;1;3;27;13;28;2;1;1;1;1;1;30;30;3;12;13;13;28;12;2;3;2;2;1;1;2;1;1;6,038;1;23;300;5;7;1;9;6;1;1
13;1;2;19;14;19;2;1;1;1;0;1;0;30;2;8;5;14;19;12;2;3;2;2;1;1;2;2;1;2,98;0;23;170;5;5;0;9;4;0;1
13;1;2;20;15;16;2;1;1;1;1;0;30;0;2;8;6;15;16;12;2;3;2;2;1;1;2;2;1;5,601;0;19;400;5;4;1;9;4;0;1
13;1;2;20;16;15;2;1;1;1;0;1;0;30;2;8;6;16;15;12;2;3;2;2;1;1;2;3;1;4,415;0;21;350;8;3;0;9;4;1;1
13;1;3;25;17;23;2;1;1;1;1;1;30;30;3;12;11;17;23;12;2;3;2;2;2;1;2;2;3;5,913;0;20;100;5;7;0;8;1;0;1
13;1;1;15;18;24;2;1;1;1;1;0;30;0;1;8;1;18;24;12;3;3;2;2;1;1;2;3;1;2,777;0;23;500;3;6;0;9;4;1;1
13;1;2;19;19;14;2;1;1;1;1;0;30;0;2;8;5;19;14;12;2;3;2;2;2;1;2;3;1;3,105;1;21;200;5;5;1;8;4;0;1
13;1;1;16;20;1;2;1;1;1;1;1;30;30;1;8;2;20;1;12;2;2;2;2;2;1;2;1;1;4,166;1;22;450;4;7;0;9;6;1;1
13;1;3;23;21;8;2;1;1;1;1;1;30;30;3;12;9;21;8;12;2;2;2;2;1;1;2;3;2;2,933;1;20;400;6;7;0;9;5;0;1
13;1;2;21;22;27;2;1;1;1;1;1;30;30;2;8;7;22;27;12;2;3;2;2;1;1;2;2;1;4,992;1;25;400;5;6;0;9;4;0;1
13;1;3;25;23;17;2;1;1;1;1;1;30;30;3;12;11;23;17;12;2;3;2;2;1;1;2;3;1;3,869;0;23;300;6;7;0;9;8;1;1
13;1;1;15;24;18;2;1;1;1;0;1;0;30;1;8;1;24;18;12;2;2;2;2;2;1;2;2;1;6,256;0;20;100;8;5;0;9;5;0;1
13;1;2;22;25;2;2;1;1;1;1;1;30;30;2;8;8;25;2;12;2;3;2;2;2;1;2;3;1;2,138;0;22;300;5;7;0;9;1;1;1
13;1;3;24;26;11;2;1;1;1;1;1;30;30;3;12;10;26;11;12;2;3;2;2;1;1;2;2;1;5,258;1;20;150;9;8;0;9;6;0;1
13;1;2;21;27;22;2;1;1;1;1;1;30;30;2;8;7;27;22;12;2;2;2;2;2;1;2;2;2;3,105;0;19;300;5;4;4;9;5;1;0
13;1;3;27;28;13;2;1;1;1;1;1;30;30;3;12;13;28;13;12;2;3;2;2;2;1;2;3;1;2,262;0;21;300;5;2;5;8;5;0;1
13;1;1;16;1;20;2;2;1;1;1;1;30;30;1;8;2;1;20;13;2;3;2;2;1;1;2;3;1;5,039;0;19;450;4;7;0;9;4;1;1
13;1;2;22;2;25;2;2;1;1;1;1;30;30;2;8;8;2;25;13;2;2;2;2;2;1;2;2;3;14,696;0;21;200;6;7;0;9;4;0;1
13;1;3;26;3;4;2;2;1;1;1;1;30;30;3;12;12;3;4;13;2;3;2;2;1;1;2;3;1;3,027;1;20;100;3;5;0;6;6;0;1
13;1;3;26;4;3;2;2;1;1;1;1;30;30;3;12;12;4;3;13;2;3;2;2;2;1;1;2;2;3,932;0;26;700;8;7;0;9;1;1;0
13;1;1;17;5;9;2;2;1;1;1;1;30;30;1;8;3;5;9;13;2;3;2;2;2;1;2;3;2;3,386;1;22;200;6;6;4;9;5;0;1
13;1;3;28;6;7;2;2;1;1;1;1;30;30;3;12;14;6;7;13;2;3;2;2;1;1;2;3;2;3,479;0;18;600;5;3;0;9;4;1;1
13;1;3;28;7;6;2;2;1;1;1;1;30;30;3;12;14;7;6;13;2;3;2;2;2;1;2;2;1;4,306;0;20;150;7;7;0;7;8;0;1
13;1;3;23;8;21;2;2;1;1;1;1;30;30;3;12;9;8;21;13;2;3;2;2;2;1;2;3;2;2,543;0;20;95;10;7;0;9;4;0;1
13;1;1;17;9;5;2;2;1;1;1;1;30;30;1;8;3;9;5;13;2;3;2;2;1;1;2;3;2;2,153;1;28;1050;4;4;1;9;4;1;1
13;1;1;18;10;12;2;2;1;1;1;1;30;30;1;8;4;10;12;13;3;3;2;2;2;1;2;2;2;2,73;1;23;300;5;7;3;1;5;0;0
13;1;3;24;11;26;2;2;1;1;1;1;30;30;3;12;10;11;26;13;2;3;2;2;1;1;2;3;2;4,15;0;23;250;5;2;0;9;1;1;1
13;1;1;18;12;10;2;2;1;1;1;1;30;30;1;8;4;12;10;13;2;2;2;2;1;1;2;3;1;4,821;0;21;250;8;9;3;9;4;0;1
13;1;3;27;13;28;2;2;1;1;1;1;30;30;3;12;13;13;28;13;2;3;2;2;1;1;2;1;1;3,542;1;23;300;5;7;1;9;6;1;1
13;1;2;19;14;19;2;2;1;1;1;1;30;30;2;8;5;14;19;13;2;3;2;2;1;1;2;2;1;3,994;0;23;170;5;5;0;9;4;0;1
13;1;2;20;15;16;2;2;1;1;1;1;30;30;2;8;6;15;16;13;2;3;2;2;1;1;2;2;1;1,857;0;19;400;5;4;1;9;4;0;1
13;1;2;20;16;15;2;2;1;1;1;1;30;30;2;8;6;16;15;13;2;3;2;2;1;1;2;3;1;4,212;0;21;350;8;3;0;9;4;1;1
13;1;3;25;17;23;2;2;1;1;0;1;0;30;3;12;11;17;23;13;2;3;2;2;2;1;2;2;3;4,571;0;20;100;5;7;0;8;1;0;1
13;1;1;15;18;24;2;2;0;0;0;0;17;17;1;8;1;18;24;13;3;3;2;2;1;1;2;3;1;2,933;0;23;500;3;6;0;9;4;1;1
13;1;2;19;19;14;2;2;1;1;1;1;30;30;2;8;5;19;14;13;2;3;2;2;2;1;2;3;1;4,244;1;21;200;5;5;1;8;4;0;1
13;1;1;16;20;1;2;2;1;1;1;1;30;30;1;8;2;20;1;13;2;2;2;2;2;1;2;1;1;2,325;1;22;450;4;7;0;9;6;1;1
13;1;3;23;21;8;2;2;1;1;1;1;30;30;3;12;9;21;8;13;2;2;2;2;1;1;2;3;2;3,167;1;20;400;6;7;0;9;5;0;1
13;1;2;21;22;27;2;2;1;1;1;1;30;30;2;8;7;22;27;13;2;3;2;2;1;1;2;2;1;2,06;1;25;400;5;6;0;9;4;0;1
13;1;3;25;23;17;2;2;1;1;1;0;30;0;3;12;11;23;17;13;2;3;2;2;1;1;2;3;1;2,153;0;23;300;6;7;0;9;8;1;1
13;1;1;15;24;18;2;2;0;0;0;0;17;17;1;8;1;24;18;13;2;2;2;2;2;1;2;2;1;6,677;0;20;100;8;5;0;9;5;0;1
13;1;2;22;25;2;2;2;1;1;1;1;30;30;2;8;8;25;2;13;2;3;2;2;2;1;2;3;1;5,632;0;22;300;5;7;0;9;1;1;1
13;1;3;24;26;11;2;2;1;1;1;1;30;30;3;12;10;26;11;13;2;3;2;2;1;1;2;2;1;3,417;1;20;150;9;8;0;9;6;0;1
13;1;2;21;27;22;2;2;1;1;1;1;30;30;2;8;7;27;22;13;2;2;2;2;2;1;2;2;2;3,557;0;19;300;5;4;4;9;5;1;0
13;1;3;27;28;13;2;2;1;1;1;1;30;30;3;12;13;28;13;13;2;3;2;2;2;1;2;3;1;3,51;0;21;300;5;2;5;8;5;0;1
13;1;1;16;1;20;2;3;1;1;1;1;30;30;1;8;2;1;20;14;2;3;2;2;1;1;2;3;1;8,299;0;19;450;4;7;0;9;4;1;1
13;1;2;22;2;25;2;3;1;1;1;1;30;30;2;8;8;2;25;14;2;2;2;2;2;1;2;2;3;3,385;0;21;200;6;7;0;9;4;0;1
13;1;3;26;3;4;2;3;1;1;1;0;30;0;3;12;12;3;4;14;2;3;2;2;1;1;2;3;1;3,401;1;20;100;3;5;0;6;6;0;1
13;1;3;26;4;3;2;3;1;1;0;1;0;30;3;12;12;4;3;14;2;3;2;2;2;1;1;2;2;2,277;0;26;700;8;7;0;9;1;1;0
13;1;1;17;5;9;2;3;1;1;1;1;30;30;1;8;3;5;9;14;2;3;2;2;2;1;2;3;2;2,979;1;22;200;6;6;4;9;5;0;1
13;1;3;28;6;7;2;3;1;1;1;1;30;30;3;12;14;6;7;14;2;3;2;2;1;1;2;3;2;3,557;0;18;600;5;3;0;9;4;1;1
13;1;3;28;7;6;2;3;1;1;1;1;30;30;3;12;14;7;6;14;2;3;2;2;2;1;2;2;1;4,461;0;20;150;7;7;0;7;8;0;1
13;1;3;23;8;21;2;3;1;1;0;1;0;30;3;12;9;8;21;14;2;3;2;2;2;1;2;3;2;4,555;0;20;95;10;7;0;9;4;0;1
13;1;1;17;9;5;2;3;1;1;1;1;30;30;1;8;3;9;5;14;2;3;2;2;1;1;2;3;2;8,205;1;28;1050;4;4;1;9;4;1;1
13;1;1;18;10;12;2;3;1;1;1;1;30;30;1;8;4;10;12;14;3;3;2;2;2;1;2;2;2;1,887;1;23;300;5;7;3;1;5;0;0
13;1;3;24;11;26;2;3;1;1;1;1;30;30;3;12;10;11;26;14;2;3;2;2;1;1;2;3;2;2,527;0;23;250;5;2;0;9;1;1;1
13;1;1;18;12;10;2;3;1;1;1;1;30;30;1;8;4;12;10;14;2;2;2;2;1;1;2;3;1;2,933;0;21;250;8;9;3;9;4;0;1
13;1;3;27;13;28;2;3;1;1;1;1;30;30;3;12;13;13;28;14;2;3;2;2;1;1;2;1;1;2,48;1;23;300;5;7;1;9;6;1;1
13;1;2;19;14;19;2;3;1;1;1;1;30;30;2;8;5;14;19;14;2;3;2;2;1;1;2;2;1;3,291;0;23;170;5;5;0;9;4;0;1
13;1;2;20;15;16;2;3;1;1;1;0;30;0;2;8;6;15;16;14;2;3;2;2;1;1;2;2;1;2,153;0;19;400;5;4;1;9;4;0;1
13;1;2;20;16;15;2;3;1;1;0;1;0;30;2;8;6;16;15;14;2;3;2;2;1;1;2;3;1;5,397;0;21;350;8;3;0;9;4;1;1
13;1;3;25;17;23;2;3;1;1;0;1;0;30;3;12;11;17;23;14;2;3;2;2;2;1;2;2;3;3,775;0;20;100;5;7;0;8;1;0;1
13;1;1;15;18;24;2;3;1;1;1;1;30;30;1;8;1;18;24;14;3;3;2;2;1;1;2;3;1;3,619;0;23;500;3;6;0;9;4;1;1
13;1;2;19;19;14;2;3;1;1;1;1;30;30;2;8;5;19;14;14;2;3;2;2;2;1;2;3;1;3,12;1;21;200;5;5;1;8;4;0;1
13;1;1;16;20;1;2;3;1;1;1;1;30;30;1;8;2;20;1;14;2;2;2;2;2;1;2;1;1;2,496;1;22;450;4;7;0;9;6;1;1
13;1;3;23;21;8;2;3;1;1;1;0;30;0;3;12;9;21;8;14;2;2;2;2;1;1;2;3;2;2,855;1;20;400;6;7;0;9;5;0;1
13;1;2;21;22;27;2;3;1;1;1;1;30;30;2;8;7;22;27;14;2;3;2;2;1;1;2;2;1;6,333;1;25;400;5;6;0;9;4;0;1
13;1;3;25;23;17;2;3;1;1;1;0;30;0;3;12;11;23;17;14;2;3;2;2;1;1;2;3;1;2,371;0;23;300;6;7;0;9;8;1;1
13;1;1;15;24;18;2;3;1;1;1;1;30;30;1;8;1;24;18;14;2;2;2;2;2;1;2;2;1;4,071;0;20;100;8;5;0;9;5;0;1
13;1;2;22;25;2;2;3;1;1;1;1;30;30;2;8;8;25;2;14;2;3;2;2;2;1;2;3;1;2,09;0;22;300;5;7;0;9;1;1;1
13;1;3;24;26;11;2;3;1;1;1;1;30;30;3;12;10;26;11;14;2;3;2;2;1;1;2;2;1;4,524;1;20;150;9;8;0;9;6;0;1
13;1;2;21;27;22;2;3;1;1;1;1;30;30;2;8;7;27;22;14;2;2;2;2;2;1;2;2;2;3,853;0;19;300;5;4;4;9;5;1;0
13;1;3;27;28;13;2;3;1;1;1;1;30;30;3;12;13;28;13;14;2;3;2;2;2;1;2;3;1;3,479;0;21;300;5;2;5;8;5;0;1
13;1;1;30;1;18;3;1;1;1;1;1;30;30;1;8;2;1;18;15;2;3;2;2;1;1;2;3;1;3,432;0;19;450;4;7;0;9;4;1;1
13;1;2;35;2;27;3;1;1;1;1;1;30;30;2;8;7;2;27;15;2;2;2;2;2;1;2;2;3;4,477;0;21;200;6;7;0;9;4;0;1
13;1;3;42;3;7;3;1;1;1;1;1;30;30;3;12;14;3;7;15;2;3;2;2;1;1;2;3;1;4,914;1;20;100;3;5;0;6;6;0;1
13;1;3;40;4;28;3;1;1;1;1;1;30;30;3;12;12;4;28;15;2;3;2;2;2;1;1;2;2;5,616;0;26;700;8;7;0;9;1;1;0
13;1;1;32;5;12;3;1;1;1;1;0;30;0;1;8;4;5;12;15;2;3;2;2;2;1;2;3;2;2,933;1;22;200;6;6;4;9;5;0;1
13;1;3;41;6;13;3;1;1;1;1;1;30;30;3;12;13;6;13;15;2;3;2;2;1;1;2;3;2;3,37;0;18;600;5;3;0;9;4;1;1
13;1;3;42;7;3;3;1;1;1;1;1;30;30;3;12;14;7;3;15;2;3;2;2;2;1;2;2;1;6,022;0;20;150;7;7;0;7;8;0;1
13;1;3;37;8;11;3;1;1;1;1;1;30;30;3;12;9;8;11;15;2;3;2;2;2;1;2;3;2;6,24;0;20;95;10;7;0;9;4;0;1
13;1;1;31;9;10;3;1;1;1;1;1;30;30;1;8;3;9;10;15;2;3;2;2;1;1;2;3;2;4,914;1;28;1050;4;4;1;9;4;1;1
13;1;1;31;10;9;3;1;1;1;1;1;30;30;1;8;3;10;9;15;3;3;2;2;2;1;2;2;2;2,044;1;23;300;5;7;3;1;5;0;0
13;1;3;37;11;8;3;1;1;1;1;1;30;30;3;12;9;11;8;15;2;3;2;2;1;1;2;3;2;8,502;0;23;250;5;2;0;9;1;1;1
13;1;1;32;12;5;3;1;1;1;0;1;0;30;1;8;4;12;5;15;2;2;2;2;1;1;2;3;1;2,652;0;21;250;8;9;3;9;4;0;1
13;1;3;41;13;6;3;1;1;1;1;1;30;30;3;12;13;13;6;15;2;3;2;2;1;1;2;1;1;2,247;1;23;300;5;7;1;9;6;1;1
13;1;2;34;14;16;3;1;1;1;1;1;30;30;2;8;6;14;16;15;2;3;2;2;1;1;2;2;1;3,401;0;23;170;5;5;0;9;4;0;1
13;1;2;33;15;19;3;1;1;1;1;0;30;0;2;8;5;15;19;15;2;3;2;2;1;1;2;2;1;3,136;0;19;400;5;4;1;9;4;0;1
13;1;2;34;16;14;3;1;1;1;1;1;30;30;2;8;6;16;14;15;2;3;2;2;1;1;2;3;1;4,555;0;21;350;8;3;0;9;4;1;1
13;1;3;39;17;21;3;1;1;1;1;1;30;30;3;12;11;17;21;15;2;3;2;2;2;1;2;2;3;4,555;0;20;100;5;7;0;8;1;0;1
13;1;1;30;18;1;3;1;1;1;1;1;30;30;1;8;2;18;1;15;3;3;2;2;1;1;2;3;1;4,774;0;23;500;3;6;0;9;4;1;1
13;1;2;33;19;15;3;1;1;1;0;1;0;30;2;8;5;19;15;15;2;3;2;2;2;1;2;3;1;2,184;1;21;200;5;5;1;8;4;0;1
13;1;1;29;20;24;3;1;1;1;1;1;30;30;1;8;1;20;24;15;2;2;2;2;2;1;2;1;1;1,95;1;22;450;4;7;0;9;6;1;1
13;1;3;39;21;17;3;1;1;1;1;1;30;30;3;12;11;21;17;15;2;2;2;2;1;1;2;3;2;3,198;1;20;400;6;7;0;9;5;0;1
13;1;2;36;22;25;3;1;1;1;1;1;30;30;2;8;8;22;25;15;2;3;2;2;1;1;2;2;1;3,354;1;25;400;5;6;0;9;4;0;1
13;1;3;38;23;26;3;1;1;1;1;1;30;30;3;12;10;23;26;15;2;3;2;2;1;1;2;3;1;4,15;0;23;300;6;7;0;9;8;1;1
13;1;1;29;24;20;3;1;1;1;1;1;30;30;1;8;1;24;20;15;2;2;2;2;2;1;2;2;1;16,739;0;20;100;8;5;0;9;5;0;1
13;1;2;36;25;22;3;1;1;1;1;1;30;30;2;8;8;25;22;15;2;3;2;2;2;1;2;3;1;2,34;0;22;300;5;7;0;9;1;1;1
13;1;3;38;26;23;3;1;1;1;1;1;30;30;3;12;10;26;23;15;2;3;2;2;1;1;2;2;1;4,228;1;20;150;9;8;0;9;6;0;1
13;1;2;35;27;2;3;1;1;1;1;1;30;30;2;8;7;27;2;15;2;2;2;2;2;1;2;2;2;3,198;0;19;300;5;4;4;9;5;1;0
13;1;3;40;28;4;3;1;1;1;1;1;30;30;3;12;12;28;4;15;2;3;2;2;2;1;2;3;1;3,963;0;21;300;5;2;5;8;5;0;1
13;1;1;30;1;18;3;2;1;1;1;1;30;30;1;8;2;1;18;16;2;3;2;2;1;1;2;3;1;2,793;0;19;450;4;7;0;9;4;1;1
13;1;2;35;2;27;3;2;1;1;1;1;30;30;2;8;7;2;27;16;2;2;2;2;2;1;2;2;3;2,917;0;21;200;6;7;0;9;4;0;1
13;1;3;42;3;7;3;2;1;1;1;1;30;30;3;12;14;3;7;16;2;3;2;2;1;1;2;3;1;2,293;1;20;100;3;5;0;6;6;0;1
13;1;3;40;4;28;3;2;1;1;1;1;30;30;3;12;12;4;28;16;2;3;2;2;2;1;1;2;2;27,768;0;26;700;8;7;0;9;1;1;0
13;1;1;32;5;12;3;2;0;1;1;0;37;0;1;8;4;5;12;16;2;3;2;2;2;1;2;3;2;2,309;1;22;200;6;6;4;9;5;0;1
13;1;3;41;6;13;3;2;1;1;1;1;30;30;3;12;13;6;13;16;2;3;2;2;1;1;2;3;2;3,214;0;18;600;5;3;0;9;4;1;1
13;1;3;42;7;3;3;2;1;1;1;1;30;30;3;12;14;7;3;16;2;3;2;2;2;1;2;2;1;5,507;0;20;150;7;7;0;7;8;0;1
13;1;3;37;8;11;3;2;1;1;1;1;30;30;3;12;9;8;11;16;2;3;2;2;2;1;2;3;2;3,292;0;20;95;10;7;0;9;4;0;1
13;1;1;31;9;10;3;2;1;1;1;1;30;30;1;8;3;9;10;16;2;3;2;2;1;1;2;3;2;12,246;1;28;1050;4;4;1;9;4;1;1
13;1;1;31;10;9;3;2;1;1;1;1;30;30;1;8;3;10;9;16;3;3;2;2;2;1;2;2;2;2,293;1;23;300;5;7;3;1;5;0;0
13;1;3;37;11;8;3;2;1;1;1;1;30;30;3;12;9;11;8;16;2;3;2;2;1;1;2;3;2;7,129;0;23;250;5;2;0;9;1;1;1
13;1;1;32;12;5;3;2;1;0;0;1;0;37;1;8;4;12;5;16;2;2;2;2;1;1;2;3;1;3,323;0;21;250;8;9;3;9;4;0;1
13;1;3;41;13;6;3;2;1;1;1;1;30;30;3;12;13;13;6;16;2;3;2;2;1;1;2;1;1;3,105;1;23;300;5;7;1;9;6;1;1
13;1;2;34;14;16;3;2;1;1;1;1;30;30;2;8;6;14;16;16;2;3;2;2;1;1;2;2;1;2,574;0;23;170;5;5;0;9;4;0;1
13;1;2;33;15;19;3;2;1;1;1;1;30;30;2;8;5;15;19;16;2;3;2;2;1;1;2;2;1;2,075;0;19;400;5;4;1;9;4;0;1
13;1;2;34;16;14;3;2;1;1;1;1;30;30;2;8;6;16;14;16;2;3;2;2;1;1;2;3;1;3,51;0;21;350;8;3;0;9;4;1;1
13;1;3;39;17;21;3;2;1;1;1;1;30;30;3;12;11;17;21;16;2;3;2;2;2;1;2;2;3;7,707;0;20;100;5;7;0;8;1;0;1
13;1;1;30;18;1;3;2;1;1;1;1;30;30;1;8;2;18;1;16;3;3;2;2;1;1;2;3;1;3,76;0;23;500;3;6;0;9;4;1;1
13;1;2;33;19;15;3;2;1;1;1;1;30;30;2;8;5;19;15;16;2;3;2;2;2;1;2;3;1;4,306;1;21;200;5;5;1;8;4;0;1
13;1;1;29;20;24;3;2;1;1;1;1;30;30;1;8;1;20;24;16;2;2;2;2;2;1;2;1;1;1,966;1;22;450;4;7;0;9;6;1;1
13;1;3;39;21;17;3;2;1;1;1;1;30;30;3;12;11;21;17;16;2;2;2;2;1;1;2;3;2;2,325;1;20;400;6;7;0;9;5;0;1
13;1;2;36;22;25;3;2;1;1;1;1;30;30;2;8;8;22;25;16;2;3;2;2;1;1;2;2;1;4,836;1;25;400;5;6;0;9;4;0;1
13;1;3;38;23;26;3;2;1;1;1;1;30;30;3;12;10;23;26;16;2;3;2;2;1;1;2;3;1;5,944;0;23;300;6;7;0;9;8;1;1
13;1;1;29;24;20;3;2;1;1;1;1;30;30;1;8;1;24;20;16;2;2;2;2;2;1;2;2;1;2,855;0;20;100;8;5;0;9;5;0;1
13;1;2;36;25;22;3;2;1;1;1;1;30;30;2;8;8;25;22;16;2;3;2;2;2;1;2;3;1;4,134;0;22;300;5;7;0;9;1;1;1
13;1;3;38;26;23;3;2;1;1;1;1;30;30;3;12;10;26;23;16;2;3;2;2;1;1;2;2;1;3,042;1;20;150;9;8;0;9;6;0;1
13;1;2;35;27;2;3;2;1;1;1;1;30;30;2;8;7;27;2;16;2;2;2;2;2;1;2;2;2;4,181;0;19;300;5;4;4;9;5;1;0
13;1;3;40;28;4;3;2;1;1;1;1;30;30;3;12;12;28;4;16;2;3;2;2;2;1;2;3;1;3,838;0;21;300;5;2;5;8;5;0;1
13;1;1;30;1;18;3;3;1;1;1;1;30;30;1;8;2;1;18;17;2;3;2;2;1;1;2;3;1;7,675;0;19;450;4;7;0;9;4;1;1
13;1;2;35;2;27;3;3;1;1;0;1;0;30;2;8;7;2;27;17;2;2;2;2;2;1;2;2;3;2,668;0;21;200;6;7;0;9;4;0;1
13;1;3;42;3;7;3;3;1;1;1;1;30;30;3;12;14;3;7;17;2;3;2;2;1;1;2;3;1;6,427;1;20;100;3;5;0;6;6;0;1
13;1;3;40;4;28;3;3;1;1;1;1;30;30;3;12;12;4;28;17;2;3;2;2;2;1;1;2;2;1,872;0;26;700;8;7;0;9;1;1;0
13;1;1;32;5;12;3;3;1;1;1;1;30;30;1;8;4;5;12;17;2;3;2;2;2;1;2;3;2;10,733;1;22;200;6;6;4;9;5;0;1
13;1;3;41;6;13;3;3;1;1;1;1;30;30;3;12;13;6;13;17;2;3;2;2;1;1;2;3;2;5,507;0;18;600;5;3;0;9;4;1;1
13;1;3;42;7;3;3;3;1;1;1;1;30;30;3;12;14;7;3;17;2;3;2;2;2;1;2;2;1;3,76;0;20;150;7;7;0;7;8;0;1
13;1;3;37;8;11;3;3;1;1;0;0;0;0;3;12;9;8;11;17;2;3;2;2;2;1;2;3;2;3,9;0;20;95;10;7;0;9;4;0;1
13;1;1;31;9;10;3;3;1;1;1;0;30;0;1;8;3;9;10;17;2;3;2;2;1;1;2;3;2;4,462;1;28;1050;4;4;1;9;4;1;1
13;1;1;31;10;9;3;3;1;1;0;1;0;30;1;8;3;10;9;17;3;3;2;2;2;1;2;2;2;1,934;1;23;300;5;7;3;1;5;0;0
13;1;3;37;11;8;3;3;1;1;0;0;0;0;3;12;9;11;8;17;2;3;2;2;1;1;2;3;2;5,678;0;23;250;5;2;0;9;1;1;1
13;1;1;32;12;5;3;3;1;1;1;1;30;30;1;8;4;12;5;17;2;2;2;2;1;1;2;3;1;3,229;0;21;250;8;9;3;9;4;0;1
13;1;3;41;13;6;3;3;1;1;1;1;30;30;3;12;13;13;6;17;2;3;2;2;1;1;2;1;1;3,245;1;23;300;5;7;1;9;6;1;1
13;1;2;34;14;16;3;3;1;1;1;1;30;30;2;8;6;14;16;17;2;3;2;2;1;1;2;2;1;3,167;0;23;170;5;5;0;9;4;0;1
13;1;2;33;15;19;3;3;1;1;1;1;30;30;2;8;5;15;19;17;2;3;2;2;1;1;2;2;1;2,761;0;19;400;5;4;1;9;4;0;1
13;1;2;34;16;14;3;3;1;1;1;1;30;30;2;8;6;16;14;17;2;3;2;2;1;1;2;3;1;3,838;0;21;350;8;3;0;9;4;1;1
13;1;3;39;17;21;3;3;1;1;1;1;30;30;3;12;11;17;21;17;2;3;2;2;2;1;2;2;3;4,571;0;20;100;5;7;0;8;1;0;1
13;1;1;30;18;1;3;3;1;1;1;1;30;30;1;8;2;18;1;17;3;3;2;2;1;1;2;3;1;6,115;0;23;500;3;6;0;9;4;1;1
13;1;2;33;19;15;3;3;1;1;1;1;30;30;2;8;5;19;15;17;2;3;2;2;2;1;2;3;1;2,683;1;21;200;5;5;1;8;4;0;1
13;1;1;29;20;24;3;3;1;1;1;1;30;30;1;8;1;20;24;17;2;2;2;2;2;1;2;1;1;2,87;1;22;450;4;7;0;9;6;1;1
13;1;3;39;21;17;3;3;1;1;1;1;30;30;3;12;11;21;17;17;2;2;2;2;1;1;2;3;2;444,01;1;20;400;6;7;0;9;5;0;1
13;1;2;36;22;25;3;3;1;1;1;1;30;30;2;8;8;22;25;17;2;3;2;2;1;1;2;2;1;3,682;1;25;400;5;6;0;9;4;0;1
13;1;3;38;23;26;3;3;1;1;1;1;30;30;3;12;10;23;26;17;2;3;2;2;1;1;2;3;1;9,454;0;23;300;6;7;0;9;8;1;1
13;1;1;29;24;20;3;3;1;1;1;1;30;30;1;8;1;24;20;17;2;2;2;2;2;1;2;2;1;2,293;0;20;100;8;5;0;9;5;0;1
13;1;2;36;25;22;3;3;1;1;1;1;30;30;2;8;8;25;22;17;2;3;2;2;2;1;2;3;1;3,338;0;22;300;5;7;0;9;1;1;1
13;1;3;38;26;23;3;3;1;1;1;1;30;30;3;12;10;26;23;17;2;3;2;2;1;1;2;2;1;3,994;1;20;150;9;8;0;9;6;0;1
13;1;2;35;27;2;3;3;1;1;1;0;30;0;2;8;7;27;2;17;2;2;2;2;2;1;2;2;2;3,588;0;19;300;5;4;4;9;5;1;0
13;1;3;40;28;4;3;3;1;1;1;1;30;30;3;12;12;28;4;17;2;3;2;2;2;1;2;3;1;4,399;0;21;300;5;2;5;8;5;0;1
13;1;1;30;1;18;3;4;1;1;1;1;30;30;1;8;2;1;18;18;2;3;2;2;1;1;2;3;1;3,401;0;19;450;4;7;0;9;4;1;1
13;1;2;35;2;27;3;4;1;1;1;1;30;30;2;8;7;2;27;18;2;2;2;2;2;1;2;2;3;7,722;0;21;200;6;7;0;9;4;0;1
13;1;3;42;3;7;3;4;1;1;0;1;0;30;3;12;14;3;7;18;2;3;2;2;1;1;2;3;1;5,054;1;20;100;3;5;0;6;6;0;1
13;1;3;40;4;28;3;4;1;1;1;1;30;30;3;12;12;4;28;18;2;3;2;2;2;1;1;2;2;3,463;0;26;700;8;7;0;9;1;1;0
13;1;1;32;5;12;3;4;1;0;0;1;0;37;1;8;4;5;12;18;2;3;2;2;2;1;2;3;2;2,449;1;22;200;6;6;4;9;5;0;1
13;1;3;41;6;13;3;4;1;1;1;1;30;30;3;12;13;6;13;18;2;3;2;2;1;1;2;3;2;7,8;0;18;600;5;3;0;9;4;1;1
13;1;3;42;7;3;3;4;1;1;1;0;30;0;3;12;14;7;3;18;2;3;2;2;2;1;2;2;1;3,292;0;20;150;7;7;0;7;8;0;1
13;1;3;37;8;11;3;4;1;1;1;1;30;30;3;12;9;8;11;18;2;3;2;2;2;1;2;3;2;1,81;0;20;95;10;7;0;9;4;0;1
13;1;1;31;9;10;3;4;1;0;0;1;0;37;1;8;3;9;10;18;2;3;2;2;1;1;2;3;2;5,866;1;28;1050;4;4;1;9;4;1;1
13;1;1;31;10;9;3;4;0;1;1;0;37;0;1;8;3;10;9;18;3;3;2;2;2;1;2;2;2;1,747;1;23;300;5;7;3;1;5;0;0
13;1;3;37;11;8;3;4;1;1;1;1;30;30;3;12;9;11;8;18;2;3;2;2;1;1;2;3;2;4,337;0;23;250;5;2;0;9;1;1;1
13;1;1;32;12;5;3;4;0;1;1;0;37;0;1;8;4;12;5;18;2;2;2;2;1;1;2;3;1;2,917;0;21;250;8;9;3;9;4;0;1
13;1;3;41;13;6;3;4;1;1;1;1;30;30;3;12;13;13;6;18;2;3;2;2;1;1;2;1;1;2,933;1;23;300;5;7;1;9;6;1;1
13;1;2;34;14;16;3;4;1;1;1;1;30;30;2;8;6;14;16;18;2;3;2;2;1;1;2;2;1;3,37;0;23;170;5;5;0;9;4;0;1
13;1;2;33;15;19;3;4;1;1;1;1;30;30;2;8;5;15;19;18;2;3;2;2;1;1;2;2;1;2,122;0;19;400;5;4;1;9;4;0;1
13;1;2;34;16;14;3;4;1;1;1;1;30;30;2;8;6;16;14;18;2;3;2;2;1;1;2;3;1;5,07;0;21;350;8;3;0;9;4;1;1
13;1;3;39;17;21;3;4;1;1;1;1;30;30;3;12;11;17;21;18;2;3;2;2;2;1;2;2;3;12,761;0;20;100;5;7;0;8;1;0;1
13;1;1;30;18;1;3;4;1;1;1;1;30;30;1;8;2;18;1;18;3;3;2;2;1;1;2;3;1;6,505;0;23;500;3;6;0;9;4;1;1
13;1;2;33;19;15;3;4;1;1;1;1;30;30;2;8;5;19;15;18;2;3;2;2;2;1;2;3;1;1,903;1;21;200;5;5;1;8;4;0;1
13;1;1;29;20;24;3;4;1;1;1;1;30;30;1;8;1;20;24;18;2;2;2;2;2;1;2;1;1;3,416;1;22;450;4;7;0;9;6;1;1
13;1;3;39;21;17;3;4;1;1;1;1;30;30;3;12;11;21;17;18;2;2;2;2;1;1;2;3;2;3,011;1;20;400;6;7;0;9;5;0;1
13;1;2;36;22;25;3;4;1;1;1;1;30;30;2;8;8;22;25;18;2;3;2;2;1;1;2;2;1;9,376;1;25;400;5;6;0;9;4;0;1
13;1;3;38;23;26;3;4;1;1;1;1;30;30;3;12;10;23;26;18;2;3;2;2;1;1;2;3;1;3,619;0;23;300;6;7;0;9;8;1;1
13;1;1;29;24;20;3;4;1;1;1;1;30;30;1;8;1;24;20;18;2;2;2;2;2;1;2;2;1;2,59;0;20;100;8;5;0;9;5;0;1
13;1;2;36;25;22;3;4;1;1;1;1;30;30;2;8;8;25;22;18;2;3;2;2;2;1;2;3;1;3,37;0;22;300;5;7;0;9;1;1;1
13;1;3;38;26;23;3;4;1;1;1;1;30;30;3;12;10;26;23;18;2;3;2;2;1;1;2;2;1;2,621;1;20;150;9;8;0;9;6;0;1
13;1;2;35;27;2;3;4;1;1;1;1;30;30;2;8;7;27;2;18;2;2;2;2;2;1;2;2;2;4,15;0;19;300;5;4;4;9;5;1;0
13;1;3;40;28;4;3;4;1;1;1;1;30;30;3;12;12;28;4;18;2;3;2;2;2;1;2;3;1;5,522;0;21;300;5;2;5;8;5;0;1
13;1;1;30;1;18;3;5;1;1;1;1;30;30;1;8;2;1;18;19;2;3;2;2;1;1;2;3;1;5,133;0;19;450;4;7;0;9;4;1;1
13;1;2;35;2;27;3;5;1;1;1;0;30;0;2;8;7;2;27;19;2;2;2;2;2;1;2;2;3;4,431;0;21;200;6;7;0;9;4;0;1
13;1;3;42;3;7;3;5;1;1;1;1;30;30;3;12;14;3;7;19;2;3;2;2;1;1;2;3;1;4,088;1;20;100;3;5;0;6;6;0;1
13;1;3;40;4;28;3;5;1;1;1;1;30;30;3;12;12;4;28;19;2;3;2;2;2;1;1;2;2;4,836;0;26;700;8;7;0;9;1;1;0
13;1;1;32;5;12;3;5;1;1;0;1;0;30;1;8;4;5;12;19;2;3;2;2;2;1;2;3;2;2,855;1;22;200;6;6;4;9;5;0;1
13;1;3;41;6;13;3;5;1;1;0;0;0;0;3;12;13;6;13;19;2;3;2;2;1;1;2;3;2;8,362;0;18;600;5;3;0;9;4;1;1
13;1;3;42;7;3;3;5;1;1;1;1;30;30;3;12;14;7;3;19;2;3;2;2;2;1;2;2;1;5,492;0;20;150;7;7;0;7;8;0;1
13;1;3;37;8;11;3;5;1;1;1;1;30;30;3;12;9;8;11;19;2;3;2;2;2;1;2;3;2;2,372;0;20;95;10;7;0;9;4;0;1
13;1;1;31;9;10;3;5;1;0;1;1;30;37;1;8;3;9;10;19;2;3;2;2;1;1;2;3;2;7,442;1;28;1050;4;4;1;9;4;1;1
13;1;1;31;10;9;3;5;0;1;1;1;37;30;1;8;3;10;9;19;3;3;2;2;2;1;2;2;2;1,982;1;23;300;5;7;3;1;5;0;0
13;1;3;37;11;8;3;5;1;1;1;1;30;30;3;12;9;11;8;19;2;3;2;2;1;1;2;3;2;2,294;0;23;250;5;2;0;9;1;1;1
13;1;1;32;12;5;3;5;1;1;1;0;30;0;1;8;4;12;5;19;2;2;2;2;1;1;2;3;1;2,574;0;21;250;8;9;3;9;4;0;1
13;1;3;41;13;6;3;5;1;1;0;0;0;0;3;12;13;13;6;19;2;3;2;2;1;1;2;1;1;4,509;1;23;300;5;7;1;9;6;1;1
13;1;2;34;14;16;3;5;1;1;1;1;30;30;2;8;6;14;16;19;2;3;2;2;1;1;2;2;1;4,462;0;23;170;5;5;0;9;4;0;1
13;1;2;33;15;19;3;5;1;1;0;1;0;30;2;8;5;15;19;19;2;3;2;2;1;1;2;2;1;6,1;0;19;400;5;4;1;9;4;0;1
13;1;2;34;16;14;3;5;1;1;1;1;30;30;2;8;6;16;14;19;2;3;2;2;1;1;2;3;1;12,87;0;21;350;8;3;0;9;4;1;1
13;1;3;39;17;21;3;5;1;1;1;1;30;30;3;12;11;17;21;19;2;3;2;2;2;1;2;2;3;4,883;0;20;100;5;7;0;8;1;0;1
13;1;1;30;18;1;3;5;1;1;1;1;30;30;1;8;2;18;1;19;3;3;2;2;1;1;2;3;1;3,495;0;23;500;3;6;0;9;4;1;1
13;1;2;33;19;15;3;5;1;1;1;0;30;0;2;8;5;19;15;19;2;3;2;2;2;1;2;3;1;2,777;1;21;200;5;5;1;8;4;0;1
13;1;1;29;20;24;3;5;1;1;1;1;30;30;1;8;1;20;24;19;2;2;2;2;2;1;2;1;1;1,654;1;22;450;4;7;0;9;6;1;1
13;1;3;39;21;17;3;5;1;1;1;1;30;30;3;12;11;21;17;19;2;2;2;2;1;1;2;3;2;7,52;1;20;400;6;7;0;9;5;0;1
13;1;2;36;22;25;3;5;1;1;1;1;30;30;2;8;8;22;25;19;2;3;2;2;1;1;2;2;1;5,57;1;25;400;5;6;0;9;4;0;1
13;1;3;38;23;26;3;5;1;1;1;1;30;30;3;12;10;23;26;19;2;3;2;2;1;1;2;3;1;4,774;0;23;300;6;7;0;9;8;1;1
13;1;1;29;24;20;3;5;1;1;1;1;30;30;1;8;1;24;20;19;2;2;2;2;2;1;2;2;1;3,105;0;20;100;8;5;0;9;5;0;1
13;1;2;36;25;22;3;5;1;1;1;1;30;30;2;8;8;25;22;19;2;3;2;2;2;1;2;3;1;2,699;0;22;300;5;7;0;9;1;1;1
13;1;3;38;26;23;3;5;1;1;1;1;30;30;3;12;10;26;23;19;2;3;2;2;1;1;2;2;1;3,464;1;20;150;9;8;0;9;6;0;1
13;1;2;35;27;2;3;5;1;1;0;1;0;30;2;8;7;27;2;19;2;2;2;2;2;1;2;2;2;5,429;0;19;300;5;4;4;9;5;1;0
13;1;3;40;28;4;3;5;1;1;1;1;30;30;3;12;12;28;4;19;2;3;2;2;2;1;2;3;1;2,886;0;21;300;5;2;5;8;5;0;1
13;1;1;45;1;12;4;1;1;1;1;0;30;0;1;8;3;1;12;20;2;3;2;2;1;1;2;3;1;2,73;0;19;450;4;7;0;9;4;1;1
13;1;2;48;2;15;4;1;1;1;1;0;30;0;2;8;6;2;15;20;2;2;2;2;2;1;2;2;3;2,512;0;21;200;6;7;0;9;4;0;1
13;1;3;55;3;21;4;1;1;1;1;0;30;0;3;12;13;3;21;20;2;3;2;2;1;1;2;3;1;12,823;1;20;100;3;5;0;6;6;0;1
13;1;3;51;4;8;4;1;1;1;1;1;30;30;3;12;9;4;8;20;2;3;2;2;2;1;1;2;2;3,167;0;26;700;8;7;0;9;1;1;0
13;1;1;46;5;18;4;1;1;1;0;1;0;30;1;8;4;5;18;20;2;3;2;2;2;1;2;3;2;2,652;1;22;200;6;6;4;9;5;0;1
13;1;3;54;6;23;4;1;1;1;1;1;30;30;3;12;12;6;23;20;2;3;2;2;1;1;2;3;2;3,775;0;18;600;5;3;0;9;4;1;1
13;1;3;53;7;17;4;1;1;1;1;1;30;30;3;12;11;7;17;20;2;3;2;2;2;1;2;2;1;4,571;0;20;150;7;7;0;7;8;0;1
13;1;3;51;8;4;4;1;1;1;1;1;30;30;3;12;9;8;4;20;2;3;2;2;2;1;2;3;2;2,247;0;20;95;10;7;0;9;4;0;1
13;1;1;43;9;24;4;1;1;1;1;1;30;30;1;8;1;9;24;20;2;3;2;2;1;1;2;3;2;7,285;1;28;1050;4;4;1;9;4;1;1
13;1;1;44;10;20;4;1;1;1;1;1;30;30;1;8;2;10;20;20;3;3;2;2;2;1;2;2;2;5,538;1;23;300;5;7;3;1;5;0;0
13;1;3;56;11;28;4;1;1;1;1;1;30;30;3;12;14;11;28;20;2;3;2;2;1;1;2;3;2;4,134;0;23;250;5;2;0;9;1;1;1
13;1;1;45;12;1;4;1;1;1;0;1;0;30;1;8;3;12;1;20;2;2;2;2;1;1;2;3;1;2,995;0;21;250;8;9;3;9;4;0;1
13;1;3;52;13;26;4;1;1;1;0;1;0;30;3;12;10;13;26;20;2;3;2;2;1;1;2;1;1;3,058;1;23;300;5;7;1;9;6;1;1
13;1;2;50;14;22;4;1;1;1;1;1;30;30;2;8;8;14;22;20;2;3;2;2;1;1;2;2;1;3,744;0;23;170;5;5;0;9;4;0;1
13;1;2;48;15;2;4;1;1;1;0;1;0;30;2;8;6;15;2;20;2;3;2;2;1;1;2;2;1;2,137;0;19;400;5;4;1;9;4;0;1
13;1;2;49;16;25;4;1;1;1;1;0;30;0;2;8;7;16;25;20;2;3;2;2;1;1;2;3;1;5,601;0;21;350;8;3;0;9;4;1;1
13;1;3;53;17;7;4;1;1;1;1;1;30;30;3;12;11;17;7;20;2;3;2;2;2;1;2;2;3;4,571;0;20;100;5;7;0;8;1;0;1
13;1;1;46;18;5;4;1;1;1;1;0;30;0;1;8;4;18;5;20;3;3;2;2;1;1;2;3;1;5,476;0;23;500;3;6;0;9;4;1;1
13;1;2;47;19;27;4;1;1;1;1;1;30;30;2;8;5;19;27;20;2;3;2;2;2;1;2;3;1;2,34;1;21;200;5;5;1;8;4;0;1
13;1;1;44;20;10;4;1;1;1;1;1;30;30;1;8;2;20;10;20;2;2;2;2;2;1;2;1;1;1,763;1;22;450;4;7;0;9;6;1;1
13;1;3;55;21;3;4;1;1;1;0;1;0;30;3;12;13;21;3;20;2;2;2;2;1;1;2;3;2;3,089;1;20;400;6;7;0;9;5;0;1
13;1;2;50;22;14;4;1;1;1;1;1;30;30;2;8;8;22;14;20;2;3;2;2;1;1;2;2;1;4,961;1;25;400;5;6;0;9;4;0;1
13;1;3;54;23;6;4;1;1;1;1;1;30;30;3;12;12;23;6;20;2;3;2;2;1;1;2;3;1;3,729;0;23;300;6;7;0;9;8;1;1
13;1;1;43;24;9;4;1;1;1;1;1;30;30;1;8;1;24;9;20;2;2;2;2;2;1;2;2;1;3,526;0;20;100;8;5;0;9;5;0;1
13;1;2;49;25;16;4;1;1;1;0;1;0;30;2;8;7;25;16;20;2;3;2;2;2;1;2;3;1;2,543;0;22;300;5;7;0;9;1;1;1
13;1;3;52;26;13;4;1;1;1;1;0;30;0;3;12;10;26;13;20;2;3;2;2;1;1;2;2;1;2,527;1;20;150;9;8;0;9;6;0;1
13;1;2;47;27;19;4;1;1;1;1;1;30;30;2;8;5;27;19;20;2;2;2;2;2;1;2;2;2;2,59;0;19;300;5;4;4;9;5;1;0
13;1;3;56;28;11;4;1;1;1;1;1;30;30;3;12;14;28;11;20;2;3;2;2;2;1;2;3;1;6,958;0;21;300;5;2;5;8;5;0;1
13;1;1;59;1;10;5;1;1;1;1;1;30;30;1;8;3;1;10;21;2;3;2;2;1;1;2;3;1;5,101;0;19;450;4;7;0;9;4;1;1
13;1;2;63;2;16;5;1;1;1;0;1;0;30;2;8;7;2;16;21;2;2;2;2;2;1;2;2;3;3,401;0;21;200;6;7;0;9;4;0;1
13;1;3;70;3;11;5;1;1;1;1;0;30;0;3;12;14;3;11;21;2;3;2;2;1;1;2;3;1;7,347;1;20;100;3;5;0;6;6;0;1
13;1;3;66;4;26;5;1;1;1;1;1;30;30;3;12;10;4;26;21;2;3;2;2;2;1;1;2;2;5,631;0;26;700;8;7;0;9;1;1;0
13;1;1;57;5;24;5;1;1;1;1;1;30;30;1;8;1;5;24;21;2;3;2;2;2;1;2;3;2;2,605;1;22;200;6;6;4;9;5;0;1
13;1;3;69;6;21;5;1;1;1;1;1;30;30;3;12;13;6;21;21;2;3;2;2;1;1;2;3;2;5,569;0;18;600;5;3;0;9;4;1;1
13;1;3;68;7;23;5;1;1;1;1;1;30;30;3;12;12;7;23;21;2;3;2;2;2;1;2;2;1;2,979;0;20;150;7;7;0;7;8;0;1
13;1;3;65;8;28;5;1;1;1;1;1;30;30;3;12;9;8;28;21;2;3;2;2;2;1;2;3;2;4,103;0;20;95;10;7;0;9;4;0;1
13;1;1;58;9;20;5;1;1;1;1;1;30;30;1;8;2;9;20;21;2;3;2;2;1;1;2;3;2;3,744;1;28;1050;4;4;1;9;4;1;1
13;1;1;59;10;1;5;1;1;1;1;1;30;30;1;8;3;10;1;21;3;3;2;2;2;1;2;2;2;4,087;1;23;300;5;7;3;1;5;0;0
13;1;3;70;11;3;5;1;1;1;0;1;0;30;3;12;14;11;3;21;2;3;2;2;1;1;2;3;2;6,146;0;23;250;5;2;0;9;1;1;1
13;1;1;60;12;18;5;1;1;1;1;1;30;30;1;8;4;12;18;21;2;2;2;2;1;1;2;3;1;2,542;0;21;250;8;9;3;9;4;0;1
13;1;3;67;13;17;5;1;1;1;0;1;0;30;3;12;11;13;17;21;2;3;2;2;1;1;2;1;1;7,067;1;23;300;5;7;1;9;6;1;1
13;1;2;64;14;25;5;1;1;1;1;0;30;0;2;8;8;14;25;21;2;3;2;2;1;1;2;2;1;4,368;0;23;170;5;5;0;9;4;0;1
13;1;2;62;15;27;5;1;1;1;1;1;30;30;2;8;6;15;27;21;2;3;2;2;1;1;2;2;1;2,308;0;19;400;5;4;1;9;4;0;1
13;1;2;63;16;2;5;1;1;1;1;0;30;0;2;8;7;16;2;21;2;3;2;2;1;1;2;3;1;3,525;0;21;350;8;3;0;9;4;1;1
13;1;3;67;17;13;5;1;1;1;1;0;30;0;3;12;11;17;13;21;2;3;2;2;2;1;2;2;3;2,995;0;20;100;5;7;0;8;1;0;1
13;1;1;60;18;12;5;1;1;1;1;1;30;30;1;8;4;18;12;21;3;3;2;2;1;1;2;3;1;3,869;0;23;500;3;6;0;9;4;1;1
13;1;2;61;19;22;5;1;1;1;1;1;30;30;2;8;5;19;22;21;2;3;2;2;2;1;2;3;1;3,525;1;21;200;5;5;1;8;4;0;1
13;1;1;58;20;9;5;1;1;1;1;1;30;30;1;8;2;20;9;21;2;2;2;2;2;1;2;1;1;2,043;1;22;450;4;7;0;9;6;1;1
13;1;3;69;21;6;5;1;1;1;1;1;30;30;3;12;13;21;6;21;2;2;2;2;1;1;2;3;2;2,901;1;20;400;6;7;0;9;5;0;1
13;1;2;61;22;19;5;1;1;1;1;1;30;30;2;8;5;22;19;21;2;3;2;2;1;1;2;2;1;3,51;1;25;400;5;6;0;9;4;0;1
13;1;3;68;23;7;5;1;1;1;1;1;30;30;3;12;12;23;7;21;2;3;2;2;1;1;2;3;1;4,368;0;23;300;6;7;0;9;8;1;1
13;1;1;57;24;5;5;1;1;1;1;1;30;30;1;8;1;24;5;21;2;2;2;2;2;1;2;2;1;3,822;0;20;100;8;5;0;9;5;0;1
13;1;2;64;25;14;5;1;1;1;0;1;0;30;2;8;8;25;14;21;2;3;2;2;2;1;2;3;1;4,68;0;22;300;5;7;0;9;1;1;1
13;1;3;66;26;4;5;1;1;1;1;1;30;30;3;12;10;26;4;21;2;3;2;2;1;1;2;2;1;3,042;1;20;150;9;8;0;9;6;0;1
13;1;2;62;27;15;5;1;1;1;1;1;30;30;2;8;6;27;15;21;2;2;2;2;2;1;2;2;2;2,917;0;19;300;5;4;4;9;5;1;0
13;1;3;65;28;8;5;1;1;1;1;1;30;30;3;12;9;28;8;21;2;3;2;2;2;1;2;3;1;3,338;0;21;300;5;2;5;8;5;0;1
13;1;1;59;1;10;5;2;1;1;1;1;30;30;1;8;3;1;10;22;2;3;2;2;1;1;2;3;1;4,165;0;19;450;4;7;0;9;4;1;1
13;1;2;63;2;16;5;2;1;1;1;1;30;30;2;8;7;2;16;22;2;2;2;2;2;1;2;2;3;6,911;0;21;200;6;7;0;9;4;0;1
13;1;3;70;3;11;5;2;1;1;0;1;0;30;3;12;14;3;11;22;2;3;2;2;1;1;2;3;1;3,775;1;20;100;3;5;0;6;6;0;1
13;1;3;66;4;26;5;2;1;1;1;0;30;0;3;12;10;4;26;22;2;3;2;2;2;1;1;2;2;2,2;0;26;700;8;7;0;9;1;1;0
13;1;1;57;5;24;5;2;1;1;1;1;30;30;1;8;1;5;24;22;2;3;2;2;2;1;2;3;2;2,668;1;22;200;6;6;4;9;5;0;1
13;1;3;69;6;21;5;2;1;1;1;1;30;30;3;12;13;6;21;22;2;3;2;2;1;1;2;3;2;4,072;0;18;600;5;3;0;9;4;1;1
13;1;3;68;7;23;5;2;1;1;1;1;30;30;3;12;12;7;23;22;2;3;2;2;2;1;2;2;1;5,039;0;20;150;7;7;0;7;8;0;1
13;1;3;65;8;28;5;2;1;1;1;1;30;30;3;12;9;8;28;22;2;3;2;2;2;1;2;3;2;3,947;0;20;95;10;7;0;9;4;0;1
13;1;1;58;9;20;5;2;1;1;1;1;30;30;1;8;2;9;20;22;2;3;2;2;1;1;2;3;2;6,412;1;28;1050;4;4;1;9;4;1;1
13;1;1;59;10;1;5;2;1;1;1;1;30;30;1;8;3;10;1;22;3;3;2;2;2;1;2;2;2;1,934;1;23;300;5;7;3;1;5;0;0
13;1;3;70;11;3;5;2;1;1;1;0;30;0;3;12;14;11;3;22;2;3;2;2;1;1;2;3;2;4,025;0;23;250;5;2;0;9;1;1;1
13;1;1;60;12;18;5;2;1;1;1;1;30;30;1;8;4;12;18;22;2;2;2;2;1;1;2;3;1;4,992;0;21;250;8;9;3;9;4;0;1
13;1;3;67;13;17;5;2;1;1;1;1;30;30;3;12;11;13;17;22;2;3;2;2;1;1;2;1;1;2,98;1;23;300;5;7;1;9;6;1;1
13;1;2;64;14;25;5;2;1;1;1;1;30;30;2;8;8;14;25;22;2;3;2;2;1;1;2;2;1;3,26;0;23;170;5;5;0;9;4;0;1
13;1;2;62;15;27;5;2;1;1;1;1;30;30;2;8;6;15;27;22;2;3;2;2;1;1;2;2;1;2,402;0;19;400;5;4;1;9;4;0;1
13;1;2;63;16;2;5;2;1;1;1;1;30;30;2;8;7;16;2;22;2;3;2;2;1;1;2;3;1;3,042;0;21;350;8;3;0;9;4;1;1
13;1;3;67;17;13;5;2;1;1;1;1;30;30;3;12;11;17;13;22;2;3;2;2;2;1;2;2;3;4,352;0;20;100;5;7;0;8;1;0;1
13;1;1;60;18;12;5;2;1;1;1;1;30;30;1;8;4;18;12;22;3;3;2;2;1;1;2;3;1;7,535;0;23;500;3;6;0;9;4;1;1
13;1;2;61;19;22;5;2;1;1;0;1;0;30;2;8;5;19;22;22;2;3;2;2;2;1;2;3;1;2,824;1;21;200;5;5;1;8;4;0;1
13;1;1;58;20;9;5;2;1;1;1;1;30;30;1;8;2;20;9;22;2;2;2;2;2;1;2;1;1;2,34;1;22;450;4;7;0;9;6;1;1
13;1;3;69;21;6;5;2;1;1;1;1;30;30;3;12;13;21;6;22;2;2;2;2;1;1;2;3;2;1,778;1;20;400;6;7;0;9;5;0;1
13;1;2;61;22;19;5;2;1;1;1;0;30;0;2;8;5;22;19;22;2;3;2;2;1;1;2;2;1;4,306;1;25;400;5;6;0;9;4;0;1
13;1;3;68;23;7;5;2;1;1;1;1;30;30;3;12;12;23;7;22;2;3;2;2;1;1;2;3;1;3,229;0;23;300;6;7;0;9;8;1;1
13;1;1;57;24;5;5;2;1;1;1;1;30;30;1;8;1;24;5;22;2;2;2;2;2;1;2;2;1;4,867;0;20;100;8;5;0;9;5;0;1
13;1;2;64;25;14;5;2;1;1;1;1;30;30;2;8;8;25;14;22;2;3;2;2;2;1;2;3;1;2,356;0;22;300;5;7;0;9;1;1;1
13;1;3;66;26;4;5;2;1;1;0;1;0;30;3;12;10;26;4;22;2;3;2;2;1;1;2;2;1;3,884;1;20;150;9;8;0;9;6;0;1
13;1;2;62;27;15;5;2;1;1;1;1;30;30;2;8;6;27;15;22;2;2;2;2;2;1;2;2;2;3,214;0;19;300;5;4;4;9;5;1;0
13;1;3;65;28;8;5;2;1;1;1;1;30;30;3;12;9;28;8;22;2;3;2;2;2;1;2;3;1;5,71;0;21;300;5;2;5;8;5;0;1
13;1;1;59;1;10;5;3;1;1;1;1;30;30;1;8;3;1;10;23;2;3;2;2;1;1;2;3;1;3,026;0;19;450;4;7;0;9;4;1;1
13;1;2;63;2;16;5;3;1;1;1;1;30;30;2;8;7;2;16;23;2;2;2;2;2;1;2;2;3;2,777;0;21;200;6;7;0;9;4;0;1
13;1;3;70;3;11;5;3;1;1;1;1;30;30;3;12;14;3;11;23;2;3;2;2;1;1;2;3;1;1,872;1;20;100;3;5;0;6;6;0;1
13;1;3;66;4;26;5;3;1;1;1;1;30;30;3;12;10;4;26;23;2;3;2;2;2;1;1;2;2;4,446;0;26;700;8;7;0;9;1;1;0
13;1;1;57;5;24;5;3;1;1;1;1;30;30;1;8;1;5;24;23;2;3;2;2;2;1;2;3;2;3,401;1;22;200;6;6;4;9;5;0;1
13;1;3;69;6;21;5;3;1;1;0;1;0;30;3;12;13;6;21;23;2;3;2;2;1;1;2;3;2;5,554;0;18;600;5;3;0;9;4;1;1
13;1;3;68;7;23;5;3;1;1;1;0;30;0;3;12;12;7;23;23;2;3;2;2;2;1;2;2;1;3,806;0;20;150;7;7;0;7;8;0;1
13;1;3;65;8;28;5;3;1;1;1;1;30;30;3;12;9;8;28;23;2;3;2;2;2;1;2;3;2;5,132;0;20;95;10;7;0;9;4;0;1
13;1;1;58;9;20;5;3;1;1;1;1;30;30;1;8;2;9;20;23;2;3;2;2;1;1;2;3;2;3,775;1;28;1050;4;4;1;9;4;1;1
13;1;1;59;10;1;5;3;1;1;1;1;30;30;1;8;3;10;1;23;3;3;2;2;2;1;2;2;2;2,012;1;23;300;5;7;3;1;5;0;0
13;1;3;70;11;3;5;3;1;1;1;1;30;30;3;12;14;11;3;23;2;3;2;2;1;1;2;3;2;8,268;0;23;250;5;2;0;9;1;1;1
13;1;1;60;12;18;5;3;1;1;1;1;30;30;1;8;4;12;18;23;2;2;2;2;1;1;2;3;1;3,619;0;21;250;8;9;3;9;4;0;1
13;1;3;67;13;17;5;3;1;1;1;1;30;30;3;12;11;13;17;23;2;3;2;2;1;1;2;1;1;2,87;1;23;300;5;7;1;9;6;1;1
13;1;2;64;14;25;5;3;1;1;1;0;30;0;2;8;8;14;25;23;2;3;2;2;1;1;2;2;1;6,053;0;23;170;5;5;0;9;4;0;1
13;1;2;62;15;27;5;3;1;1;1;1;30;30;2;8;6;15;27;23;2;3;2;2;1;1;2;2;1;2,231;0;19;400;5;4;1;9;4;0;1
13;1;2;63;16;2;5;3;1;1;1;1;30;30;2;8;7;16;2;23;2;3;2;2;1;1;2;3;1;3,557;0;21;350;8;3;0;9;4;1;1
13;1;3;67;17;13;5;3;1;1;1;1;30;30;3;12;11;17;13;23;2;3;2;2;2;1;2;2;3;4,384;0;20;100;5;7;0;8;1;0;1
13;1;1;60;18;12;5;3;1;1;1;1;30;30;1;8;4;18;12;23;3;3;2;2;1;1;2;3;1;5,07;0;23;500;3;6;0;9;4;1;1
13;1;2;61;19;22;5;3;1;1;1;1;30;30;2;8;5;19;22;23;2;3;2;2;2;1;2;3;1;2,028;1;21;200;5;5;1;8;4;0;1
13;1;1;58;20;9;5;3;1;1;1;1;30;30;1;8;2;20;9;23;2;2;2;2;2;1;2;1;1;4,945;1;22;450;4;7;0;9;6;1;1
13;1;3;69;21;6;5;3;1;1;1;0;30;0;3;12;13;21;6;23;2;2;2;2;1;1;2;3;2;2,98;1;20;400;6;7;0;9;5;0;1
13;1;2;61;22;19;5;3;1;1;1;1;30;30;2;8;5;22;19;23;2;3;2;2;1;1;2;2;1;4,508;1;25;400;5;6;0;9;4;0;1
13;1;3;68;23;7;5;3;1;1;0;1;0;30;3;12;12;23;7;23;2;3;2;2;1;1;2;3;1;2,59;0;23;300;6;7;0;9;8;1;1
13;1;1;57;24;5;5;3;1;1;1;1;30;30;1;8;1;24;5;23;2;2;2;2;2;1;2;2;1;3,713;0;20;100;8;5;0;9;5;0;1
13;1;2;64;25;14;5;3;1;1;0;1;0;30;2;8;8;25;14;23;2;3;2;2;2;1;2;3;1;2,434;0;22;300;5;7;0;9;1;1;1
13;1;3;66;26;4;5;3;1;1;1;1;30;30;3;12;10;26;4;23;2;3;2;2;1;1;2;2;1;3,182;1;20;150;9;8;0;9;6;0;1
13;1;2;62;27;15;5;3;1;1;1;1;30;30;2;8;6;27;15;23;2;2;2;2;2;1;2;2;2;3,292;0;19;300;5;4;4;9;5;1;0
13;1;3;65;28;8;5;3;1;1;1;1;30;30;3;12;9;28;8;23;2;3;2;2;2;1;2;3;1;3,775;0;21;300;5;2;5;8;5;0;1
13;1;1;59;1;10;5;4;1;1;1;1;30;30;1;8;3;1;10;24;2;3;2;2;1;1;2;3;1;3,057;0;19;450;4;7;0;9;4;1;1
13;1;2;63;2;16;5;4;1;1;1;1;30;30;2;8;7;2;16;24;2;2;2;2;2;1;2;2;3;4,321;0;21;200;6;7;0;9;4;0;1
13;1;3;70;3;11;5;4;1;1;1;1;30;30;3;12;14;3;11;24;2;3;2;2;1;1;2;3;1;9,219;1;20;100;3;5;0;6;6;0;1
13;1;3;66;4;26;5;4;1;1;1;1;30;30;3;12;10;4;26;24;2;3;2;2;2;1;1;2;2;2,886;0;26;700;8;7;0;9;1;1;0
13;1;1;57;5;24;5;4;1;1;1;1;30;30;1;8;1;5;24;24;2;3;2;2;2;1;2;3;2;2,137;1;22;200;6;6;4;9;5;0;1
13;1;3;69;6;21;5;4;1;1;1;1;30;30;3;12;13;6;21;24;2;3;2;2;1;1;2;3;2;4,009;0;18;600;5;3;0;9;4;1;1
13;1;3;68;7;23;5;4;1;1;1;1;30;30;3;12;12;7;23;24;2;3;2;2;2;1;2;2;1;6,443;0;20;150;7;7;0;7;8;0;1
13;1;3;65;8;28;5;4;1;1;1;1;30;30;3;12;9;8;28;24;2;3;2;2;2;1;2;3;2;2,589;0;20;95;10;7;0;9;4;0;1
13;1;1;58;9;20;5;4;1;1;1;1;30;30;1;8;2;9;20;24;2;3;2;2;1;1;2;3;2;12,277;1;28;1050;4;4;1;9;4;1;1
13;1;1;59;10;1;5;4;1;1;1;1;30;30;1;8;3;10;1;24;3;3;2;2;2;1;2;2;2;2,231;1;23;300;5;7;3;1;5;0;0
13;1;3;70;11;3;5;4;1;1;1;1;30;30;3;12;14;11;3;24;2;3;2;2;1;1;2;3;2;8,361;0;23;250;5;2;0;9;1;1;1
13;1;1;60;12;18;5;4;1;1;1;1;30;30;1;8;4;12;18;24;2;2;2;2;1;1;2;3;1;2,761;0;21;250;8;9;3;9;4;0;1
13;1;3;67;13;17;5;4;1;1;1;1;30;30;3;12;11;13;17;24;2;3;2;2;1;1;2;1;1;2,979;1;23;300;5;7;1;9;6;1;1
13;1;2;64;14;25;5;4;1;1;1;1;30;30;2;8;8;14;25;24;2;3;2;2;1;1;2;2;1;3,463;0;23;170;5;5;0;9;4;0;1
13;1;2;62;15;27;5;4;1;1;1;1;30;30;2;8;6;15;27;24;2;3;2;2;1;1;2;2;1;2,324;0;19;400;5;4;1;9;4;0;1
13;1;2;63;16;2;5;4;1;1;1;1;30;30;2;8;7;16;2;24;2;3;2;2;1;1;2;3;1;2,699;0;21;350;8;3;0;9;4;1;1
13;1;3;67;17;13;5;4;1;1;1;1;30;30;3;12;11;17;13;24;2;3;2;2;2;1;2;2;3;5,319;0;20;100;5;7;0;8;1;0;1
13;1;1;60;18;12;5;4;1;1;1;1;30;30;1;8;4;18;12;24;3;3;2;2;1;1;2;3;1;5,975;0;23;500;3;6;0;9;4;1;1
13;1;2;61;19;22;5;4;1;1;1;1;30;30;2;8;5;19;22;24;2;3;2;2;2;1;2;3;1;2,543;1;21;200;5;5;1;8;4;0;1
13;1;1;58;20;9;5;4;1;1;1;1;30;30;1;8;2;20;9;24;2;2;2;2;2;1;2;1;1;3,806;1;22;450;4;7;0;9;6;1;1
13;1;3;69;21;6;5;4;1;1;1;1;30;30;3;12;13;21;6;24;2;2;2;2;1;1;2;3;2;2,215;1;20;400;6;7;0;9;5;0;1
13;1;2;61;22;19;5;4;1;1;1;1;30;30;2;8;5;22;19;24;2;3;2;2;1;1;2;2;1;3,681;1;25;400;5;6;0;9;4;0;1
13;1;3;68;23;7;5;4;1;1;1;1;30;30;3;12;12;23;7;24;2;3;2;2;1;1;2;3;1;3,167;0;23;300;6;7;0;9;8;1;1
13;1;1;57;24;5;5;4;1;1;1;1;30;30;1;8;1;24;5;24;2;2;2;2;2;1;2;2;1;3,494;0;20;100;8;5;0;9;5;0;1
13;1;2;64;25;14;5;4;1;1;1;1;30;30;2;8;8;25;14;24;2;3;2;2;2;1;2;3;1;2,433;0;22;300;5;7;0;9;1;1;1
13;1;3;66;26;4;5;4;1;1;1;1;30;30;3;12;10;26;4;24;2;3;2;2;1;1;2;2;1;5,538;1;20;150;9;8;0;9;6;0;1
13;1;2;62;27;15;5;4;1;1;1;1;30;30;2;8;6;27;15;24;2;2;2;2;2;1;2;2;2;3,869;0;19;300;5;4;4;9;5;1;0
13;1;3;65;28;8;5;4;1;1;1;1;30;30;3;12;9;28;8;24;2;3;2;2;2;1;2;3;1;3,775;0;21;300;5;2;5;8;5;0;1
13;1;1;59;1;10;5;5;1;1;1;1;30;30;1;8;3;1;10;25;2;3;2;2;1;1;2;3;1;4,462;0;19;450;4;7;0;9;4;1;1
13;1;2;63;2;16;5;5;1;1;1;1;30;30;2;8;7;2;16;25;2;2;2;2;2;1;2;2;3;3,806;0;21;200;6;7;0;9;4;0;1
13;1;3;70;3;11;5;5;1;1;1;0;30;0;3;12;14;3;11;25;2;3;2;2;1;1;2;3;1;2,761;1;20;100;3;5;0;6;6;0;1
13;1;3;66;4;26;5;5;1;1;1;1;30;30;3;12;10;4;26;25;2;3;2;2;2;1;1;2;2;3,697;0;26;700;8;7;0;9;1;1;0
13;1;1;57;5;24;5;5;1;1;1;1;30;30;1;8;1;5;24;25;2;3;2;2;2;1;2;3;2;2,824;1;22;200;6;6;4;9;5;0;1
13;1;3;69;6;21;5;5;1;1;1;1;30;30;3;12;13;6;21;25;2;3;2;2;1;1;2;3;2;4,93;0;18;600;5;3;0;9;4;1;1
13;1;3;68;7;23;5;5;1;1;1;1;30;30;3;12;12;7;23;25;2;3;2;2;2;1;2;2;1;4,352;0;20;150;7;7;0;7;8;0;1
13;1;3;65;8;28;5;5;1;1;1;1;30;30;3;12;9;8;28;25;2;3;2;2;2;1;2;3;2;3,682;0;20;95;10;7;0;9;4;0;1
13;1;1;58;9;20;5;5;1;1;1;0;30;0;1;8;2;9;20;25;2;3;2;2;1;1;2;3;2;4,009;1;28;1050;4;4;1;9;4;1;1
13;1;1;59;10;1;5;5;1;1;1;1;30;30;1;8;3;10;1;25;3;3;2;2;2;1;2;2;2;3,697;1;23;300;5;7;3;1;5;0;0
13;1;3;70;11;3;5;5;1;1;0;1;0;30;3;12;14;11;3;25;2;3;2;2;1;1;2;3;2;2,543;0;23;250;5;2;0;9;1;1;1
13;1;1;60;12;18;5;5;1;1;1;1;30;30;1;8;4;12;18;25;2;2;2;2;1;1;2;3;1;3,385;0;21;250;8;9;3;9;4;0;1
13;1;3;67;13;17;5;5;1;1;1;0;30;0;3;12;11;13;17;25;2;3;2;2;1;1;2;1;1;3,682;1;23;300;5;7;1;9;6;1;1
13;1;2;64;14;25;5;5;1;1;1;1;30;30;2;8;8;14;25;25;2;3;2;2;1;1;2;2;1;5,554;0;23;170;5;5;0;9;4;0;1
13;1;2;62;15;27;5;5;1;1;1;1;30;30;2;8;6;15;27;25;2;3;2;2;1;1;2;2;1;2,543;0;19;400;5;4;1;9;4;0;1
13;1;2;63;16;2;5;5;1;1;1;1;30;30;2;8;7;16;2;25;2;3;2;2;1;1;2;3;1;3,058;0;21;350;8;3;0;9;4;1;1
13;1;3;67;17;13;5;5;1;1;0;1;0;30;3;12;11;17;13;25;2;3;2;2;2;1;2;2;3;10,405;0;20;100;5;7;0;8;1;0;1
13;1;1;60;18;12;5;5;1;1;1;1;30;30;1;8;4;18;12;25;3;3;2;2;1;1;2;3;1;8,143;0;23;500;3;6;0;9;4;1;1
13;1;2;61;19;22;5;5;1;1;1;1;30;30;2;8;5;19;22;25;2;3;2;2;2;1;2;3;1;1,903;1;21;200;5;5;1;8;4;0;1
13;1;1;58;20;9;5;5;1;1;0;1;0;30;1;8;2;20;9;25;2;2;2;2;2;1;2;1;1;7,441;1;22;450;4;7;0;9;6;1;1
13;1;3;69;21;6;5;5;1;1;1;1;30;30;3;12;13;21;6;25;2;2;2;2;1;1;2;3;2;2,995;1;20;400;6;7;0;9;5;0;1
13;1;2;61;22;19;5;5;1;1;1;1;30;30;2;8;5;22;19;25;2;3;2;2;1;1;2;2;1;6,786;1;25;400;5;6;0;9;4;0;1
13;1;3;68;23;7;5;5;1;1;1;1;30;30;3;12;12;23;7;25;2;3;2;2;1;1;2;3;1;10,748;0;23;300;6;7;0;9;8;1;1
13;1;1;57;24;5;5;5;1;1;1;1;30;30;1;8;1;24;5;25;2;2;2;2;2;1;2;2;1;5,507;0;20;100;8;5;0;9;5;0;1
13;1;2;64;25;14;5;5;1;1;1;1;30;30;2;8;8;25;14;25;2;3;2;2;2;1;2;3;1;5,881;0;22;300;5;7;0;9;1;1;1
13;1;3;66;26;4;5;5;1;1;1;1;30;30;3;12;10;26;4;25;2;3;2;2;1;1;2;2;1;3,151;1;20;150;9;8;0;9;6;0;1
13;1;2;62;27;15;5;5;1;1;1;1;30;30;2;8;6;27;15;25;2;2;2;2;2;1;2;2;2;3,37;0;19;300;5;4;4;9;5;1;0
13;1;3;65;28;8;5;5;1;1;1;1;30;30;3;12;9;28;8;25;2;3;2;2;2;1;2;3;1;4,274;0;21;300;5;2;5;8;5;0;1
13;1;1;73;1;9;6;1;1;1;1;1;30;30;1;8;3;1;9;26;2;3;2;2;1;1;2;3;1;5,335;0;19;450;4;7;0;9;4;1;1
13;1;2;78;2;14;6;1;1;1;1;1;30;30;2;8;8;2;14;26;2;2;2;2;2;1;2;2;3;19,734;0;21;200;6;7;0;9;4;0;1
13;1;3;79;3;8;6;1;1;1;1;1;30;30;3;12;9;3;8;26;2;3;2;2;1;1;2;3;1;2,48;1;20;100;3;5;0;6;6;0;1
13;1;3;81;4;17;6;1;1;1;1;1;30;30;3;12;11;4;17;26;2;3;2;2;2;1;1;2;2;5,07;0;26;700;8;7;0;9;1;1;0
13;1;1;72;5;20;6;1;1;1;1;1;30;30;1;8;2;5;20;26;2;3;2;2;2;1;2;3;2;2,464;1;22;200;6;6;4;9;5;0;1
13;1;3;84;6;11;6;1;1;1;1;1;30;30;3;12;14;6;11;26;2;3;2;2;1;1;2;3;2;6,131;0;18;600;5;3;0;9;4;1;1
13;1;3;83;7;21;6;1;1;1;1;1;30;30;3;12;13;7;21;26;2;3;2;2;2;1;2;2;1;3,572;0;20;150;7;7;0;7;8;0;1
13;1;3;79;8;3;6;1;1;1;1;1;30;30;3;12;9;8;3;26;2;3;2;2;2;1;2;3;2;2,901;0;20;95;10;7;0;9;4;0;1
13;1;1;73;9;1;6;1;1;1;1;1;30;30;1;8;3;9;1;26;2;3;2;2;1;1;2;3;2;7,113;1;28;1050;4;4;1;9;4;1;1
13;1;1;74;10;18;6;1;1;1;1;1;30;30;1;8;4;10;18;26;3;3;2;2;2;1;2;2;2;2,87;1;23;300;5;7;3;1;5;0;0
13;1;3;84;11;6;6;1;1;1;1;1;30;30;3;12;14;11;6;26;2;3;2;2;1;1;2;3;2;3,385;0;23;250;5;2;0;9;1;1;1
13;1;1;71;12;24;6;1;1;1;1;1;30;30;1;8;1;12;24;26;2;2;2;2;1;1;2;3;1;3,978;0;21;250;8;9;3;9;4;0;1
13;1;3;82;13;23;6;1;1;1;1;1;30;30;3;12;12;13;23;26;2;3;2;2;1;1;2;1;1;3,322;1;23;300;5;7;1;9;6;1;1
13;1;2;78;14;2;6;1;1;1;1;1;30;30;2;8;8;14;2;26;2;3;2;2;1;1;2;2;1;2,948;0;23;170;5;5;0;9;4;0;1
13;1;2;76;15;22;6;1;1;1;1;1;30;30;2;8;6;15;22;26;2;3;2;2;1;1;2;2;1;3,556;0;19;400;5;4;1;9;4;0;1
13;1;2;77;16;27;6;1;1;1;1;1;30;30;2;8;7;16;27;26;2;3;2;2;1;1;2;3;1;2,823;0;21;350;8;3;0;9;4;1;1
13;1;3;81;17;4;6;1;1;1;1;1;30;30;3;12;11;17;4;26;2;3;2;2;2;1;2;2;3;4,461;0;20;100;5;7;0;8;1;0;1
13;1;1;74;18;10;6;1;1;1;1;1;30;30;1;8;4;18;10;26;3;3;2;2;1;1;2;3;1;4,165;0;23;500;3;6;0;9;4;1;1
13;1;2;75;19;25;6;1;1;1;1;1;30;30;2;8;5;19;25;26;2;3;2;2;2;1;2;3;1;2,199;1;21;200;5;5;1;8;4;0;1
13;1;1;72;20;5;6;1;1;1;1;1;30;30;1;8;2;20;5;26;2;2;2;2;2;1;2;1;1;2,511;1;22;450;4;7;0;9;6;1;1
13;1;3;83;21;7;6;1;1;1;1;1;30;30;3;12;13;21;7;26;2;2;2;2;1;1;2;3;2;3,432;1;20;400;6;7;0;9;5;0;1
13;1;2;76;22;15;6;1;1;1;1;1;30;30;2;8;6;22;15;26;2;3;2;2;1;1;2;2;1;5,273;1;25;400;5;6;0;9;4;0;1
13;1;3;82;23;13;6;1;1;1;1;1;30;30;3;12;12;23;13;26;2;3;2;2;1;1;2;3;1;2,074;0;23;300;6;7;0;9;8;1;1
13;1;1;71;24;12;6;1;1;1;1;1;30;30;1;8;1;24;12;26;2;2;2;2;2;1;2;2;1;3,634;0;20;100;8;5;0;9;5;0;1
13;1;2;75;25;19;6;1;1;1;1;1;30;30;2;8;5;25;19;26;2;3;2;2;2;1;2;3;1;2,808;0;22;300;5;7;0;9;1;1;1
13;1;3;80;26;28;6;1;1;1;0;1;0;30;3;12;10;26;28;26;2;3;2;2;1;1;2;2;1;4,82;1;20;150;9;8;0;9;6;0;1
13;1;2;77;27;16;6;1;1;1;1;1;30;30;2;8;7;27;16;26;2;2;2;2;2;1;2;2;2;3,634;0;19;300;5;4;4;9;5;1;0
13;1;3;80;28;26;6;1;1;1;1;0;30;0;3;12;10;28;26;26;2;3;2;2;2;1;2;3;1;2,979;0;21;300;5;2;5;8;5;0;1
13;1;1;73;1;9;6;2;1;1;1;1;30;30;1;8;3;1;9;27;2;3;2;2;1;1;2;3;1;2,823;0;19;450;4;7;0;9;4;1;1
13;1;2;78;2;14;6;2;1;1;1;0;30;0;2;8;8;2;14;27;2;2;2;2;2;1;2;2;3;4,383;0;21;200;6;7;0;9;4;0;1
13;1;3;79;3;8;6;2;1;1;1;1;30;30;3;12;9;3;8;27;2;3;2;2;1;1;2;3;1;3,478;1;20;100;3;5;0;6;6;0;1
13;1;3;81;4;17;6;2;1;1;0;1;0;30;3;12;11;4;17;27;2;3;2;2;2;1;1;2;2;2,527;0;26;700;8;7;0;9;1;1;0
13;1;1;72;5;20;6;2;1;1;0;1;0;30;1;8;2;5;20;27;2;3;2;2;2;1;2;3;2;3,634;1;22;200;6;6;4;9;5;0;1
13;1;3;84;6;11;6;2;1;1;1;1;30;30;3;12;14;6;11;27;2;3;2;2;1;1;2;3;2;4,165;0;18;600;5;3;0;9;4;1;1
13;1;3;83;7;21;6;2;1;1;1;1;30;30;3;12;13;7;21;27;2;3;2;2;2;1;2;2;1;5,023;0;20;150;7;7;0;7;8;0;1
13;1;3;79;8;3;6;2;1;1;1;1;30;30;3;12;9;8;3;27;2;3;2;2;2;1;2;3;2;3,166;0;20;95;10;7;0;9;4;0;1
13;1;1;73;9;1;6;2;1;1;1;1;30;30;1;8;3;9;1;27;2;3;2;2;1;1;2;3;2;4,867;1;28;1050;4;4;1;9;4;1;1
13;1;1;74;10;18;6;2;1;1;1;1;30;30;1;8;4;10;18;27;3;3;2;2;2;1;2;2;2;4,04;1;23;300;5;7;3;1;5;0;0
13;1;3;84;11;6;6;2;1;1;1;1;30;30;3;12;14;11;6;27;2;3;2;2;1;1;2;3;2;3,088;0;23;250;5;2;0;9;1;1;1
13;1;1;71;12;24;6;2;1;1;1;1;30;30;1;8;1;12;24;27;2;2;2;2;1;1;2;3;1;2,652;0;21;250;8;9;3;9;4;0;1
13;1;3;82;13;23;6;2;1;1;1;0;30;0;3;12;12;13;23;27;2;3;2;2;1;1;2;1;1;3,276;1;23;300;5;7;1;9;6;1;1
13;1;2;78;14;2;6;2;1;1;0;1;0;30;2;8;8;14;2;27;2;3;2;2;1;1;2;2;1;3,4;0;23;170;5;5;0;9;4;0;1
13;1;2;76;15;22;6;2;1;1;1;0;30;0;2;8;6;15;22;27;2;3;2;2;1;1;2;2;1;3,806;0;19;400;5;4;1;9;4;0;1
13;1;2;77;16;27;6;2;1;1;1;1;30;30;2;8;7;16;27;27;2;3;2;2;1;1;2;3;1;3,681;0;21;350;8;3;0;9;4;1;1
13;1;3;81;17;4;6;2;1;1;1;0;30;0;3;12;11;17;4;27;2;3;2;2;2;1;2;2;3;4,57;0;20;100;5;7;0;8;1;0;1
13;1;1;74;18;10;6;2;1;1;1;1;30;30;1;8;4;18;10;27;3;3;2;2;1;1;2;3;1;3,868;0;23;500;3;6;0;9;4;1;1
13;1;2;75;19;25;6;2;1;1;1;1;30;30;2;8;5;19;25;27;2;3;2;2;2;1;2;3;1;4,024;1;21;200;5;5;1;8;4;0;1
13;1;1;72;20;5;6;2;1;1;1;0;30;0;1;8;2;20;5;27;2;2;2;2;2;1;2;1;1;2,059;1;22;450;4;7;0;9;6;1;1
13;1;3;83;21;7;6;2;1;1;1;1;30;30;3;12;13;21;7;27;2;2;2;2;1;1;2;3;2;2,714;1;20;400;6;7;0;9;5;0;1
13;1;2;76;22;15;6;2;1;1;0;1;0;30;2;8;6;22;15;27;2;3;2;2;1;1;2;2;1;4,056;1;25;400;5;6;0;9;4;0;1
13;1;3;82;23;13;6;2;1;1;0;1;0;30;3;12;12;23;13;27;2;3;2;2;1;1;2;3;1;2,402;0;23;300;6;7;0;9;8;1;1
13;1;1;71;24;12;6;2;1;1;1;1;30;30;1;8;1;24;12;27;2;2;2;2;2;1;2;2;1;5,974;0;20;100;8;5;0;9;5;0;1
13;1;2;75;25;19;6;2;1;1;1;1;30;30;2;8;5;25;19;27;2;3;2;2;2;1;2;3;1;3,198;0;22;300;5;7;0;9;1;1;1
13;1;3;80;26;28;6;2;1;1;1;0;30;0;3;12;10;26;28;27;2;3;2;2;1;1;2;2;1;3,307;1;20;150;9;8;0;9;6;0;1
13;1;2;77;27;16;6;2;1;1;1;1;30;30;2;8;7;27;16;27;2;2;2;2;2;1;2;2;2;2,792;0;19;300;5;4;4;9;5;1;0
13;1;3;80;28;26;6;2;1;1;0;1;0;30;3;12;10;28;26;27;2;3;2;2;2;1;2;3;1;3,291;0;21;300;5;2;5;8;5;0;1
13;1;1;87;1;5;7;1;1;1;1;1;30;30;1;8;3;1;5;28;2;3;2;2;1;1;2;3;1;2,964;0;19;450;4;7;0;9;4;1;1
13;1;2;89;2;19;7;1;1;1;1;1;30;30;2;8;5;2;19;28;2;2;2;2;2;1;2;2;3;2,434;0;21;200;6;7;0;9;4;0;1
13;1;3;94;3;26;7;1;1;1;1;1;30;30;3;12;10;3;26;28;2;3;2;2;1;1;2;3;1;3,884;1;20;100;3;5;0;6;6;0;1
13;1;3;96;4;23;7;1;1;1;1;1;30;30;3;12;12;4;23;28;2;3;2;2;2;1;1;2;2;2,98;0;26;700;8;7;0;9;1;1;0
13;1;1;87;5;1;7;1;1;1;1;1;30;30;1;8;3;5;1;28;2;3;2;2;2;1;2;3;2;4,243;1;22;200;6;6;4;9;5;0;1
13;1;3;93;6;8;7;1;1;1;0;1;0;30;3;12;9;6;8;28;2;3;2;2;1;1;2;3;2;2,621;0;18;600;5;3;0;9;4;1;1
13;1;3;98;7;11;7;1;1;1;1;1;30;30;3;12;14;7;11;28;2;3;2;2;2;1;2;2;1;3,697;0;20;150;7;7;0;7;8;0;1
13;1;3;93;8;6;7;1;1;1;1;0;30;0;3;12;9;8;6;28;2;3;2;2;2;1;2;3;2;3,416;0;20;95;10;7;0;9;4;0;1
13;1;1;88;9;18;7;1;1;1;1;1;30;30;1;8;4;9;18;28;2;3;2;2;1;1;2;3;2;10,358;1;28;1050;4;4;1;9;4;1;1
13;1;1;85;10;24;7;1;1;1;1;1;30;30;1;8;1;10;24;28;3;3;2;2;2;1;2;2;2;2,465;1;23;300;5;7;3;1;5;0;0
13;1;3;98;11;7;7;1;1;1;1;1;30;30;3;12;14;11;7;28;2;3;2;2;1;1;2;3;2;4,633;0;23;250;5;2;0;9;1;1;1
13;1;1;86;12;20;7;1;1;1;1;1;30;30;1;8;2;12;20;28;2;2;2;2;1;1;2;3;1;2,59;0;21;250;8;9;3;9;4;0;1
13;1;3;97;13;21;7;1;1;1;1;1;30;30;3;12;13;13;21;28;2;3;2;2;1;1;2;1;1;3,526;1;23;300;5;7;1;9;6;1;1
13;1;2;92;14;27;7;1;1;1;0;1;0;30;2;8;8;14;27;28;2;3;2;2;1;1;2;2;1;3,494;0;23;170;5;5;0;9;4;0;1
13;1;2;90;15;25;7;1;1;1;0;1;0;30;2;8;6;15;25;28;2;3;2;2;1;1;2;2;1;2,2;0;19;400;5;4;1;9;4;0;1
13;1;2;91;16;22;7;1;1;1;1;1;30;30;2;8;7;16;22;28;2;3;2;2;1;1;2;3;1;5,554;0;21;350;8;3;0;9;4;1;1
13;1;3;95;17;28;7;1;1;1;1;1;30;30;3;12;11;17;28;28;2;3;2;2;2;1;2;2;3;4,477;0;20;100;5;7;0;8;1;0;1
13;1;1;88;18;9;7;1;1;1;1;1;30;30;1;8;4;18;9;28;3;3;2;2;1;1;2;3;1;4,29;0;23;500;3;6;0;9;4;1;1
13;1;2;89;19;2;7;1;1;1;1;1;30;30;2;8;5;19;2;28;2;3;2;2;2;1;2;3;1;1,966;1;21;200;5;5;1;8;4;0;1
13;1;1;86;20;12;7;1;1;1;1;1;30;30;1;8;2;20;12;28;2;2;2;2;2;1;2;1;1;2,122;1;22;450;4;7;0;9;6;1;1
13;1;3;97;21;13;7;1;1;1;1;1;30;30;3;12;13;21;13;28;2;2;2;2;1;1;2;3;2;2,527;1;20;400;6;7;0;9;5;0;1
13;1;2;91;22;16;7;1;1;1;1;1;30;30;2;8;7;22;16;28;2;3;2;2;1;1;2;2;1;3,962;1;25;400;5;6;0;9;4;0;1
13;1;3;96;23;4;7;1;1;1;1;1;30;30;3;12;12;23;4;28;2;3;2;2;1;1;2;3;1;3,635;0;23;300;6;7;0;9;8;1;1
13;1;1;85;24;10;7;1;1;1;1;1;30;30;1;8;1;24;10;28;2;2;2;2;2;1;2;2;1;3,728;0;20;100;8;5;0;9;5;0;1
13;1;2;90;25;15;7;1;1;1;1;0;30;0;2;8;6;25;15;28;2;3;2;2;2;1;2;3;1;2,621;0;22;300;5;7;0;9;1;1;1
13;1;3;94;26;3;7;1;1;1;1;1;30;30;3;12;10;26;3;28;2;3;2;2;1;1;2;2;1;3,136;1;20;150;9;8;0;9;6;0;1
13;1;2;92;27;14;7;1;1;1;1;0;30;0;2;8;8;27;14;28;2;2;2;2;2;1;2;2;2;3,697;0;19;300;5;4;4;9;5;1;0
13;1;3;95;28;17;7;1;1;1;1;1;30;30;3;12;11;28;17;28;2;3;2;2;2;1;2;3;1;2,902;0;21;300;5;2;5;8;5;0;1
13;1;1;87;1;5;7;2;1;1;1;1;30;30;1;8;3;1;5;29;2;3;2;2;1;1;2;3;1;2,153;0;19;450;4;7;0;9;4;1;1
13;1;2;89;2;19;7;2;1;1;1;1;30;30;2;8;5;2;19;29;2;2;2;2;2;1;2;2;3;9,735;0;21;200;6;7;0;9;4;0;1
13;1;3;94;3;26;7;2;1;1;1;1;30;30;3;12;10;3;26;29;2;3;2;2;1;1;2;3;1;4,041;1;20;100;3;5;0;6;6;0;1
13;1;3;96;4;23;7;2;1;1;1;1;30;30;3;12;12;4;23;29;2;3;2;2;2;1;1;2;2;7,691;0;26;700;8;7;0;9;1;1;0
13;1;1;87;5;1;7;2;1;1;1;1;30;30;1;8;3;5;1;29;2;3;2;2;2;1;2;3;2;2,465;1;22;200;6;6;4;9;5;0;1
13;1;3;93;6;8;7;2;1;1;1;0;30;0;3;12;9;6;8;29;2;3;2;2;1;1;2;3;2;3,027;0;18;600;5;3;0;9;4;1;1
13;1;3;98;7;11;7;2;1;1;0;1;0;30;3;12;14;7;11;29;2;3;2;2;2;1;2;2;1;3,183;0;20;150;7;7;0;7;8;0;1
13;1;3;93;8;6;7;2;1;1;0;1;0;30;3;12;9;8;6;29;2;3;2;2;2;1;2;3;2;3,245;0;20;95;10;7;0;9;4;0;1
13;1;1;88;9;18;7;2;1;1;0;1;0;30;1;8;4;9;18;29;2;3;2;2;1;1;2;3;2;5,055;1;28;1050;4;4;1;9;4;1;1
13;1;1;85;10;24;7;2;1;1;0;1;0;30;1;8;1;10;24;29;3;3;2;2;2;1;2;2;2;2,122;1;23;300;5;7;3;1;5;0;0
13;1;3;98;11;7;7;2;1;1;1;0;30;0;3;12;14;11;7;29;2;3;2;2;1;1;2;3;2;4,072;0;23;250;5;2;0;9;1;1;1
13;1;1;86;12;20;7;2;1;1;1;1;30;30;1;8;2;12;20;29;2;2;2;2;1;1;2;3;1;2,418;0;21;250;8;9;3;9;4;0;1
13;1;3;97;13;21;7;2;1;1;1;1;30;30;3;12;13;13;21;29;2;3;2;2;1;1;2;1;1;3,713;1;23;300;5;7;1;9;6;1;1
13;1;2;92;14;27;7;2;1;1;1;0;30;0;2;8;8;14;27;29;2;3;2;2;1;1;2;2;1;3,573;0;23;170;5;5;0;9;4;0;1
13;1;2;90;15;25;7;2;1;1;1;1;30;30;2;8;6;15;25;29;2;3;2;2;1;1;2;2;1;2,325;0;19;400;5;4;1;9;4;0;1
13;1;2;91;16;22;7;2;1;1;1;0;30;0;2;8;7;16;22;29;2;3;2;2;1;1;2;3;1;5,632;0;21;350;8;3;0;9;4;1;1
13;1;3;95;17;28;7;2;1;1;1;1;30;30;3;12;11;17;28;29;2;3;2;2;2;1;2;2;3;3,495;0;20;100;5;7;0;8;1;0;1
13;1;1;88;18;9;7;2;1;1;1;0;30;0;1;8;4;18;9;29;3;3;2;2;1;1;2;3;1;4,166;0;23;500;3;6;0;9;4;1;1
13;1;2;89;19;2;7;2;1;1;1;1;30;30;2;8;5;19;2;29;2;3;2;2;2;1;2;3;1;3,323;1;21;200;5;5;1;8;4;0;1
13;1;1;86;20;12;7;2;1;1;1;1;30;30;1;8;2;20;12;29;2;2;2;2;2;1;2;1;1;2,496;1;22;450;4;7;0;9;6;1;1
13;1;3;97;21;13;7;2;1;1;1;1;30;30;3;12;13;21;13;29;2;2;2;2;1;1;2;3;2;2,2;1;20;400;6;7;0;9;5;0;1
13;1;2;91;22;16;7;2;1;1;0;1;0;30;2;8;7;22;16;29;2;3;2;2;1;1;2;2;1;3,214;1;25;400;5;6;0;9;4;0;1
13;1;3;96;23;4;7;2;1;1;1;1;30;30;3;12;12;23;4;29;2;3;2;2;1;1;2;3;1;2,949;0;23;300;6;7;0;9;8;1;1
13;1;1;85;24;10;7;2;1;1;1;0;30;0;1;8;1;24;10;29;2;2;2;2;2;1;2;2;1;2,84;0;20;100;8;5;0;9;5;0;1
13;1;2;90;25;15;7;2;1;1;1;1;30;30;2;8;6;25;15;29;2;3;2;2;2;1;2;3;1;1,872;0;22;300;5;7;0;9;1;1;1
13;1;3;94;26;3;7;2;1;1;1;1;30;30;3;12;10;26;3;29;2;3;2;2;1;1;2;2;1;3,963;1;20;150;9;8;0;9;6;0;1
13;1;2;92;27;14;7;2;1;1;0;1;0;30;2;8;8;27;14;29;2;2;2;2;2;1;2;2;2;3,791;0;19;300;5;4;4;9;5;1;0
13;1;3;95;28;17;7;2;1;1;1;1;30;30;3;12;11;28;17;29;2;3;2;2;2;1;2;3;1;4,618;0;21;300;5;2;5;8;5;0;1
13;1;1;87;1;5;7;3;1;1;1;0;30;0;1;8;3;1;5;30;2;3;2;2;1;1;2;3;1;2,902;0;19;450;4;7;0;9;4;1;1
13;1;2;89;2;19;7;3;1;1;1;1;30;30;2;8;5;2;19;30;2;2;2;2;2;1;2;2;3;2,652;0;21;200;6;7;0;9;4;0;1
13;1;3;94;3;26;7;3;1;1;1;1;30;30;3;12;10;3;26;30;2;3;2;2;1;1;2;3;1;13,151;1;20;100;3;5;0;6;6;0;1
13;1;3;96;4;23;7;3;1;1;1;1;30;30;3;12;12;4;23;30;2;3;2;2;2;1;1;2;2;3,651;0;26;700;8;7;0;9;1;1;0
13;1;1;87;5;1;7;3;1;1;0;1;0;30;1;8;3;5;1;30;2;3;2;2;2;1;2;3;2;3,011;1;22;200;6;6;4;9;5;0;1
13;1;3;93;6;8;7;3;1;1;1;1;30;30;3;12;9;6;8;30;2;3;2;2;1;1;2;3;2;3,869;0;18;600;5;3;0;9;4;1;1
13;1;3;98;7;11;7;3;1;1;1;1;30;30;3;12;14;7;11;30;2;3;2;2;2;1;2;2;1;5,461;0;20;150;7;7;0;7;8;0;1
13;1;3;93;8;6;7;3;1;1;1;1;30;30;3;12;9;8;6;30;2;3;2;2;2;1;2;3;2;3,495;0;20;95;10;7;0;9;4;0;1
13;1;1;88;9;18;7;3;1;1;1;0;30;0;1;8;4;9;18;30;2;3;2;2;1;1;2;3;2;4,259;1;28;1050;4;4;1;9;4;1;1
13;1;1;85;10;24;7;3;1;1;1;1;30;30;1;8;1;10;24;30;3;3;2;2;2;1;2;2;2;2,325;1;23;300;5;7;3;1;5;0;0
13;1;3;98;11;7;7;3;1;1;1;1;30;30;3;12;14;11;7;30;2;3;2;2;1;1;2;3;2;4,415;0;23;250;5;2;0;9;1;1;1
13;1;1;86;12;20;7;3;1;1;1;1;30;30;1;8;2;12;20;30;2;2;2;2;1;1;2;3;1;3,354;0;21;250;8;9;3;9;4;0;1
13;1;3;97;13;21;7;3;1;1;1;1;30;30;3;12;13;13;21;30;2;3;2;2;1;1;2;1;1;3,183;1;23;300;5;7;1;9;6;1;1
13;1;2;92;14;27;7;3;1;1;1;1;30;30;2;8;8;14;27;30;2;3;2;2;1;1;2;2;1;3,9;0;23;170;5;5;0;9;4;0;1
13;1;2;90;15;25;7;3;1;1;1;1;30;30;2;8;6;15;25;30;2;3;2;2;1;1;2;2;1;1,794;0;19;400;5;4;1;9;4;0;1
13;1;2;91;16;22;7;3;1;1;0;1;0;30;2;8;7;16;22;30;2;3;2;2;1;1;2;3;1;3,495;0;21;350;8;3;0;9;4;1;1
13;1;3;95;17;28;7;3;1;1;1;1;30;30;3;12;11;17;28;30;2;3;2;2;2;1;2;2;3;6,787;0;20;100;5;7;0;8;1;0;1
13;1;1;88;18;9;7;3;1;1;0;1;0;30;1;8;4;18;9;30;3;3;2;2;1;1;2;3;1;4,275;0;23;500;3;6;0;9;4;1;1
13;1;2;89;19;2;7;3;1;1;1;1;30;30;2;8;5;19;2;30;2;3;2;2;2;1;2;3;1;2,122;1;21;200;5;5;1;8;4;0;1
13;1;1;86;20;12;7;3;1;1;1;1;30;30;1;8;2;20;12;30;2;2;2;2;2;1;2;1;1;2,762;1;22;450;4;7;0;9;6;1;1
13;1;3;97;21;13;7;3;1;1;1;1;30;30;3;12;13;21;13;30;2;2;2;2;1;1;2;3;2;2,777;1;20;400;6;7;0;9;5;0;1
13;1;2;91;22;16;7;3;1;1;1;0;30;0;2;8;7;22;16;30;2;3;2;2;1;1;2;2;1;3,386;1;25;400;5;6;0;9;4;0;1
13;1;3;96;23;4;7;3;1;1;1;1;30;30;3;12;12;23;4;30;2;3;2;2;1;1;2;3;1;4,337;0;23;300;6;7;0;9;8;1;1
13;1;1;85;24;10;7;3;1;1;1;1;30;30;1;8;1;24;10;30;2;2;2;2;2;1;2;2;1;7,426;0;20;100;8;5;0;9;5;0;1
13;1;2;90;25;15;7;3;1;1;1;1;30;30;2;8;6;25;15;30;2;3;2;2;2;1;2;3;1;2,528;0;22;300;5;7;0;9;1;1;1
13;1;3;94;26;3;7;3;1;1;1;1;30;30;3;12;10;26;3;30;2;3;2;2;1;1;2;2;1;6,521;1;20;150;9;8;0;9;6;0;1
13;1;2;92;27;14;7;3;1;1;1;1;30;30;2;8;8;27;14;30;2;2;2;2;2;1;2;2;2;3,947;0;19;300;5;4;4;9;5;1;0
13;1;3;95;28;17;7;3;1;1;1;1;30;30;3;12;11;28;17;30;2;3;2;2;2;1;2;3;1;6,287;0;21;300;5;2;5;8;5;0;1
13;1;1;87;1;5;7;4;1;1;1;1;30;30;1;8;3;1;5;31;2;3;2;2;1;1;2;3;1;3,931;0;19;450;4;7;0;9;4;1;1
13;1;2;89;2;19;7;4;1;1;0;1;0;30;2;8;5;2;19;31;2;2;2;2;2;1;2;2;3;7,909;0;21;200;6;7;0;9;4;0;1
13;1;3;94;3;26;7;4;1;1;1;1;30;30;3;12;10;3;26;31;2;3;2;2;1;1;2;3;1;3,759;1;20;100;3;5;0;6;6;0;1
13;1;3;96;4;23;7;4;1;1;1;1;30;30;3;12;12;4;23;31;2;3;2;2;2;1;1;2;2;3,401;0;26;700;8;7;0;9;1;1;0
13;1;1;87;5;1;7;4;1;1;1;1;30;30;1;8;3;5;1;31;2;3;2;2;2;1;2;3;2;4,243;1;22;200;6;6;4;9;5;0;1
13;1;3;93;6;8;7;4;1;1;1;1;30;30;3;12;9;6;8;31;2;3;2;2;1;1;2;3;2;3,759;0;18;600;5;3;0;9;4;1;1
13;1;3;98;7;11;7;4;1;0;0;1;0;37;3;12;14;7;11;31;2;3;2;2;2;1;2;2;1;6,536;0;20;150;7;7;0;7;8;0;1
13;1;3;93;8;6;7;4;1;1;1;1;30;30;3;12;9;8;6;31;2;3;2;2;2;1;2;3;2;2,839;0;20;95;10;7;0;9;4;0;1
13;1;1;88;9;18;7;4;1;1;1;1;30;30;1;8;4;9;18;31;2;3;2;2;1;1;2;3;2;5,491;1;28;1050;4;4;1;9;4;1;1
13;1;1;85;10;24;7;4;1;1;1;1;30;30;1;8;1;10;24;31;3;3;2;2;2;1;2;2;2;4,056;1;23;300;5;7;3;1;5;0;0
13;1;3;98;11;7;7;4;0;1;1;0;37;0;3;12;14;11;7;31;2;3;2;2;1;1;2;3;2;3,681;0;23;250;5;2;0;9;1;1;1
13;1;1;86;12;20;7;4;1;1;1;1;30;30;1;8;2;12;20;31;2;2;2;2;1;1;2;3;1;3,104;0;21;250;8;9;3;9;4;0;1
13;1;3;97;13;21;7;4;1;1;1;0;30;0;3;12;13;13;21;31;2;3;2;2;1;1;2;1;1;3,791;1;23;300;5;7;1;9;6;1;1
13;1;2;92;14;27;7;4;1;1;1;0;30;0;2;8;8;14;27;31;2;3;2;2;1;1;2;2;1;2,87;0;23;170;5;5;0;9;4;0;1
13;1;2;90;15;25;7;4;1;1;1;1;30;30;2;8;6;15;25;31;2;3;2;2;1;1;2;2;1;2,246;0;19;400;5;4;1;9;4;0;1
13;1;2;91;16;22;7;4;1;1;1;1;30;30;2;8;7;16;22;31;2;3;2;2;1;1;2;3;1;2,48;0;21;350;8;3;0;9;4;1;1
13;1;3;95;17;28;7;4;1;1;0;1;0;30;3;12;11;17;28;31;2;3;2;2;2;1;2;2;3;5,787;0;20;100;5;7;0;8;1;0;1
13;1;1;88;18;9;7;4;1;1;1;1;30;30;1;8;4;18;9;31;3;3;2;2;1;1;2;3;1;5,803;0;23;500;3;6;0;9;4;1;1
13;1;2;89;19;2;7;4;1;1;1;0;30;0;2;8;5;19;2;31;2;3;2;2;2;1;2;3;1;2,028;1;21;200;5;5;1;8;4;0;1
13;1;1;86;20;12;7;4;1;1;1;1;30;30;1;8;2;20;12;31;2;2;2;2;2;1;2;1;1;1,965;1;22;450;4;7;0;9;6;1;1
13;1;3;97;21;13;7;4;1;1;0;1;0;30;3;12;13;21;13;31;2;2;2;2;1;1;2;3;2;2,979;1;20;400;6;7;0;9;5;0;1
13;1;2;91;22;16;7;4;1;1;1;1;30;30;2;8;7;22;16;31;2;3;2;2;1;1;2;2;1;6,458;1;25;400;5;6;0;9;4;0;1
13;1;3;96;23;4;7;4;1;1;1;1;30;30;3;12;12;23;4;31;2;3;2;2;1;1;2;3;1;6,536;0;23;300;6;7;0;9;8;1;1
13;1;1;85;24;10;7;4;1;1;1;1;30;30;1;8;1;24;10;31;2;2;2;2;2;1;2;2;1;3,354;0;20;100;8;5;0;9;5;0;1
13;1;2;90;25;15;7;4;1;1;1;1;30;30;2;8;6;25;15;31;2;3;2;2;2;1;2;3;1;2,137;0;22;300;5;7;0;9;1;1;1
13;1;3;94;26;3;7;4;1;1;1;1;30;30;3;12;10;26;3;31;2;3;2;2;1;1;2;2;1;4,571;1;20;150;9;8;0;9;6;0;1
13;1;2;92;27;14;7;4;1;1;0;1;0;30;2;8;8;27;14;31;2;2;2;2;2;1;2;2;2;4,368;0;19;300;5;4;4;9;5;1;0
13;1;3;95;28;17;7;4;1;1;1;0;30;0;3;12;11;28;17;31;2;3;2;2;2;1;2;3;1;4,134;0;21;300;5;2;5;8;5;0;1
13;1;1;87;1;5;7;5;1;1;1;1;30;30;1;8;3;1;5;32;2;3;2;2;1;1;2;3;1;2,996;0;19;450;4;7;0;9;4;1;1
13;1;2;89;2;19;7;5;1;1;1;1;30;30;2;8;5;2;19;32;2;2;2;2;2;1;2;2;3;5,133;0;21;200;6;7;0;9;4;0;1
13;1;3;94;3;26;7;5;1;1;1;1;30;30;3;12;10;3;26;32;2;3;2;2;1;1;2;3;1;6,396;1;20;100;3;5;0;6;6;0;1
13;1;3;96;4;23;7;5;1;1;1;1;30;30;3;12;12;4;23;32;2;3;2;2;2;1;1;2;2;2,606;0;26;700;8;7;0;9;1;1;0
13;1;1;87;5;1;7;5;1;1;1;1;30;30;1;8;3;5;1;32;2;3;2;2;2;1;2;3;2;1,982;1;22;200;6;6;4;9;5;0;1
13;1;3;93;6;8;7;5;1;1;1;0;30;0;3;12;9;6;8;32;2;3;2;2;1;1;2;3;2;4,758;0;18;600;5;3;0;9;4;1;1
13;1;3;98;7;11;7;5;1;0;0;1;0;37;3;12;14;7;11;32;2;3;2;2;2;1;2;2;1;20,795;0;20;150;7;7;0;7;8;0;1
13;1;3;93;8;6;7;5;1;1;0;1;0;30;3;12;9;8;6;32;2;3;2;2;2;1;2;3;2;2,247;0;20;95;10;7;0;9;4;0;1
13;1;1;88;9;18;7;5;1;1;1;0;30;0;1;8;4;9;18;32;2;3;2;2;1;1;2;3;2;5,991;1;28;1050;4;4;1;9;4;1;1
13;1;1;85;10;24;7;5;1;1;1;1;30;30;1;8;1;10;24;32;3;3;2;2;2;1;2;2;2;2,684;1;23;300;5;7;3;1;5;0;0
13;1;3;98;11;7;7;5;0;1;1;0;37;0;3;12;14;11;7;32;2;3;2;2;1;1;2;3;2;12,855;0;23;250;5;2;0;9;1;1;1
13;1;1;86;12;20;7;5;1;1;1;1;30;30;1;8;2;12;20;32;2;2;2;2;1;1;2;3;1;3,23;0;21;250;8;9;3;9;4;0;1
13;1;3;97;13;21;7;5;1;1;1;0;30;0;3;12;13;13;21;32;2;3;2;2;1;1;2;1;1;3,089;1;23;300;5;7;1;9;6;1;1
13;1;2;92;14;27;7;5;1;1;1;1;30;30;2;8;8;14;27;32;2;3;2;2;1;1;2;2;1;4,384;0;23;170;5;5;0;9;4;0;1
13;1;2;90;15;25;7;5;1;1;1;1;30;30;2;8;6;15;25;32;2;3;2;2;1;1;2;2;1;2,356;0;19;400;5;4;1;9;4;0;1
13;1;2;91;16;22;7;5;1;1;1;1;30;30;2;8;7;16;22;32;2;3;2;2;1;1;2;3;1;3,604;0;21;350;8;3;0;9;4;1;1
13;1;3;95;17;28;7;5;1;1;1;0;30;0;3;12;11;17;28;32;2;3;2;2;2;1;2;2;3;5,554;0;20;100;5;7;0;8;1;0;1
13;1;1;88;18;9;7;5;1;1;0;1;0;30;1;8;4;18;9;32;3;3;2;2;1;1;2;3;1;3,136;0;23;500;3;6;0;9;4;1;1
13;1;2;89;19;2;7;5;1;1;1;1;30;30;2;8;5;19;2;32;2;3;2;2;2;1;2;3;1;3,167;1;21;200;5;5;1;8;4;0;1
13;1;1;86;20;12;7;5;1;1;1;1;30;30;1;8;2;20;12;32;2;2;2;2;2;1;2;1;1;2,028;1;22;450;4;7;0;9;6;1;1
13;1;3;97;21;13;7;5;1;1;0;1;0;30;3;12;13;21;13;32;2;2;2;2;1;1;2;3;2;2,169;1;20;400;6;7;0;9;5;0;1
13;1;2;91;22;16;7;5;1;1;1;1;30;30;2;8;7;22;16;32;2;3;2;2;1;1;2;2;1;3,276;1;25;400;5;6;0;9;4;0;1
13;1;3;96;23;4;7;5;1;1;1;1;30;30;3;12;12;23;4;32;2;3;2;2;1;1;2;3;1;2,309;0;23;300;6;7;0;9;8;1;1
13;1;1;85;24;10;7;5;1;1;1;1;30;30;1;8;1;24;10;32;2;2;2;2;2;1;2;2;1;3,791;0;20;100;8;5;0;9;5;0;1
13;1;2;90;25;15;7;5;1;1;1;1;30;30;2;8;6;25;15;32;2;3;2;2;2;1;2;3;1;2,294;0;22;300;5;7;0;9;1;1;1
13;1;3;94;26;3;7;5;1;1;1;1;30;30;3;12;10;26;3;32;2;3;2;2;1;1;2;2;1;5,96;1;20;150;9;8;0;9;6;0;1
13;1;2;92;27;14;7;5;1;1;1;1;30;30;2;8;8;27;14;32;2;2;2;2;2;1;2;2;2;2,746;0;19;300;5;4;4;9;5;1;0
13;1;3;95;28;17;7;5;1;1;0;1;0;30;3;12;11;28;17;32;2;3;2;2;2;1;2;3;1;3,323;0;21;300;5;2;5;8;5;0;1
13;1;1;87;1;5;7;6;1;1;1;1;30;30;1;8;3;1;5;33;2;3;2;2;1;1;2;3;1;5,631;0;19;450;4;7;0;9;4;1;1
13;1;2;89;2;19;7;6;1;1;1;1;30;30;2;8;5;2;19;33;2;2;2;2;2;1;2;2;3;3,634;0;21;200;6;7;0;9;4;0;1
13;1;3;94;3;26;7;6;1;1;1;1;30;30;3;12;10;3;26;33;2;3;2;2;1;1;2;3;1;4,929;1;20;100;3;5;0;6;6;0;1
13;1;3;96;4;23;7;6;1;1;1;1;30;30;3;12;12;4;23;33;2;3;2;2;2;1;1;2;2;22,479;0;26;700;8;7;0;9;1;1;0
13;1;1;87;5;1;7;6;1;1;1;1;30;30;1;8;3;5;1;33;2;3;2;2;2;1;2;3;2;3,042;1;22;200;6;6;4;9;5;0;1
13;1;3;93;6;8;7;6;1;0;0;1;0;37;3;12;9;6;8;33;2;3;2;2;1;1;2;3;2;2,761;0;18;600;5;3;0;9;4;1;1
13;1;3;98;7;11;7;6;0;1;0;0;17;0;3;12;14;7;11;33;2;3;2;2;2;1;2;2;1;3,416;0;20;150;7;7;0;7;8;0;1
13;1;3;93;8;6;7;6;0;1;1;0;37;0;3;12;9;8;6;33;2;3;2;2;2;1;2;3;2;2,418;0;20;95;10;7;0;9;4;0;1
13;1;1;88;9;18;7;6;1;1;1;1;30;30;1;8;4;9;18;33;2;3;2;2;1;1;2;3;2;7,456;1;28;1050;4;4;1;9;4;1;1
13;1;1;85;10;24;7;6;1;1;1;1;30;30;1;8;1;10;24;33;3;3;2;2;2;1;2;2;2;3,447;1;23;300;5;7;3;1;5;0;0
13;1;3;98;11;7;7;6;1;0;0;0;0;17;3;12;14;11;7;33;2;3;2;2;1;1;2;3;2;4,992;0;23;250;5;2;0;9;1;1;1
13;1;1;86;12;20;7;6;1;1;1;1;30;30;1;8;2;12;20;33;2;2;2;2;1;1;2;3;1;2,48;0;21;250;8;9;3;9;4;0;1
13;1;3;97;13;21;7;6;1;1;1;1;30;30;3;12;13;13;21;33;2;3;2;2;1;1;2;1;1;2,948;1;23;300;5;7;1;9;6;1;1
13;1;2;92;14;27;7;6;1;1;1;1;30;30;2;8;8;14;27;33;2;3;2;2;1;1;2;2;1;4,102;0;23;170;5;5;0;9;4;0;1
13;1;2;90;15;25;7;6;1;1;1;1;30;30;2;8;6;15;25;33;2;3;2;2;1;1;2;2;1;2,028;0;19;400;5;4;1;9;4;0;1
13;1;2;91;16;22;7;6;1;1;1;1;30;30;2;8;7;16;22;33;2;3;2;2;1;1;2;3;1;2,776;0;21;350;8;3;0;9;4;1;1
13;1;3;95;17;28;7;6;1;1;1;1;30;30;3;12;11;17;28;33;2;3;2;2;2;1;2;2;3;4,742;0;20;100;5;7;0;8;1;0;1
13;1;1;88;18;9;7;6;1;1;1;1;30;30;1;8;4;18;9;33;3;3;2;2;1;1;2;3;1;5,46;0;23;500;3;6;0;9;4;1;1
13;1;2;89;19;2;7;6;1;1;1;1;30;30;2;8;5;19;2;33;2;3;2;2;2;1;2;3;1;2,995;1;21;200;5;5;1;8;4;0;1
13;1;1;86;20;12;7;6;1;1;1;1;30;30;1;8;2;20;12;33;2;2;2;2;2;1;2;1;1;2,137;1;22;450;4;7;0;9;6;1;1
13;1;3;97;21;13;7;6;1;1;1;1;30;30;3;12;13;21;13;33;2;2;2;2;1;1;2;3;2;3,01;1;20;400;6;7;0;9;5;0;1
13;1;2;91;22;16;7;6;1;1;1;1;30;30;2;8;7;22;16;33;2;3;2;2;1;1;2;2;1;2,886;1;25;400;5;6;0;9;4;0;1
13;1;3;96;23;4;7;6;1;1;1;1;30;30;3;12;12;23;4;33;2;3;2;2;1;1;2;3;1;8,736;0;23;300;6;7;0;9;8;1;1
13;1;1;85;24;10;7;6;1;1;1;1;30;30;1;8;1;24;10;33;2;2;2;2;2;1;2;2;1;3,884;0;20;100;8;5;0;9;5;0;1
13;1;2;90;25;15;7;6;1;1;1;1;30;30;2;8;6;25;15;33;2;3;2;2;2;1;2;3;1;2,979;0;22;300;5;7;0;9;1;1;1
13;1;3;94;26;3;7;6;1;1;1;1;30;30;3;12;10;26;3;33;2;3;2;2;1;1;2;2;1;3,884;1;20;150;9;8;0;9;6;0;1
13;1;2;92;27;14;7;6;1;1;1;1;30;30;2;8;8;27;14;33;2;2;2;2;2;1;2;2;2;3,759;0;19;300;5;4;4;9;5;1;0
13;1;3;95;28;17;7;6;1;1;1;1;30;30;3;12;11;28;17;33;2;3;2;2;2;1;2;3;1;3,338;0;21;300;5;2;5;8;5;0;1
13;1;1;87;1;5;7;7;1;1;1;1;30;30;1;8;3;1;5;34;2;3;2;2;1;1;2;3;1;4,196;0;19;450;4;7;0;9;4;1;1
13;1;2;89;2;19;7;7;1;1;1;1;30;30;2;8;5;2;19;34;2;2;2;2;2;1;2;2;3;9,999;0;21;200;6;7;0;9;4;0;1
13;1;3;94;3;26;7;7;1;1;1;1;30;30;3;12;10;3;26;34;2;3;2;2;1;1;2;3;1;6,443;1;20;100;3;5;0;6;6;0;1
13;1;3;96;4;23;7;7;1;1;1;1;30;30;3;12;12;4;23;34;2;3;2;2;2;1;1;2;2;4,087;0;26;700;8;7;0;9;1;1;0
13;1;1;87;5;1;7;7;1;1;1;1;30;30;1;8;3;5;1;34;2;3;2;2;2;1;2;3;2;3,322;1;22;200;6;6;4;9;5;0;1
13;1;3;93;6;8;7;7;1;1;1;1;30;30;3;12;9;6;8;34;2;3;2;2;1;1;2;3;2;2,277;0;18;600;5;3;0;9;4;1;1
13;1;3;98;7;11;7;7;0;0;0;0;17;17;3;12;14;7;11;34;2;3;2;2;2;1;2;2;1;4,368;0;20;150;7;7;0;7;8;0;1
13;1;3;93;8;6;7;7;1;1;1;1;30;30;3;12;9;8;6;34;2;3;2;2;2;1;2;3;2;5,834;0;20;95;10;7;0;9;4;0;1
13;1;1;88;9;18;7;7;1;1;1;1;30;30;1;8;4;9;18;34;2;3;2;2;1;1;2;3;2;6,708;1;28;1050;4;4;1;9;4;1;1
13;1;1;85;10;24;7;7;1;1;1;1;30;30;1;8;1;10;24;34;3;3;2;2;2;1;2;2;2;2,308;1;23;300;5;7;3;1;5;0;0
13;1;3;98;11;7;7;7;0;0;0;0;17;17;3;12;14;11;7;34;2;3;2;2;1;1;2;3;2;3,681;0;23;250;5;2;0;9;1;1;1
13;1;1;86;12;20;7;7;1;1;1;1;30;30;1;8;2;12;20;34;2;2;2;2;1;1;2;3;1;2,808;0;21;250;8;9;3;9;4;0;1
13;1;3;97;13;21;7;7;1;1;1;1;30;30;3;12;13;13;21;34;2;3;2;2;1;1;2;1;1;4,586;1;23;300;5;7;1;9;6;1;1
13;1;2;92;14;27;7;7;1;1;1;1;30;30;2;8;8;14;27;34;2;3;2;2;1;1;2;2;1;5,163;0;23;170;5;5;0;9;4;0;1
13;1;2;90;15;25;7;7;1;1;1;1;30;30;2;8;6;15;25;34;2;3;2;2;1;1;2;2;1;2,09;0;19;400;5;4;1;9;4;0;1
13;1;2;91;16;22;7;7;1;1;1;0;30;0;2;8;7;16;22;34;2;3;2;2;1;1;2;3;1;3,322;0;21;350;8;3;0;9;4;1;1
13;1;3;95;17;28;7;7;1;1;1;1;30;30;3;12;11;17;28;34;2;3;2;2;2;1;2;2;3;5,912;0;20;100;5;7;0;8;1;0;1
13;1;1;88;18;9;7;7;1;1;1;1;30;30;1;8;4;18;9;34;3;3;2;2;1;1;2;3;1;4,898;0;23;500;3;6;0;9;4;1;1
13;1;2;89;19;2;7;7;1;1;1;1;30;30;2;8;5;19;2;34;2;3;2;2;2;1;2;3;1;1,981;1;21;200;5;5;1;8;4;0;1
13;1;1;86;20;12;7;7;1;1;1;1;30;30;1;8;2;20;12;34;2;2;2;2;2;1;2;1;1;2,418;1;22;450;4;7;0;9;6;1;1
13;1;3;97;21;13;7;7;1;1;1;1;30;30;3;12;13;21;13;34;2;2;2;2;1;1;2;3;2;4,024;1;20;400;6;7;0;9;5;0;1
13;1;2;91;22;16;7;7;1;1;0;1;0;30;2;8;7;22;16;34;2;3;2;2;1;1;2;2;1;2,761;1;25;400;5;6;0;9;4;0;1
13;1;3;96;23;4;7;7;1;1;1;1;30;30;3;12;12;23;4;34;2;3;2;2;1;1;2;3;1;3,4;0;23;300;6;7;0;9;8;1;1
13;1;1;85;24;10;7;7;1;1;1;1;30;30;1;8;1;24;10;34;2;2;2;2;2;1;2;2;1;3,322;0;20;100;8;5;0;9;5;0;1
13;1;2;90;25;15;7;7;1;1;1;1;30;30;2;8;6;25;15;34;2;3;2;2;2;1;2;3;1;3,088;0;22;300;5;7;0;9;1;1;1
13;1;3;94;26;3;7;7;1;1;1;1;30;30;3;12;10;26;3;34;2;3;2;2;1;1;2;2;1;4,695;1;20;150;9;8;0;9;6;0;1
13;1;2;92;27;14;7;7;1;1;1;1;30;30;2;8;8;27;14;34;2;2;2;2;2;1;2;2;2;13,509;0;19;300;5;4;4;9;5;1;0
13;1;3;95;28;17;7;7;1;1;1;1;30;30;3;12;11;28;17;34;2;3;2;2;2;1;2;3;1;3,931;0;21;300;5;2;5;8;5;0;1
13;1;1;87;1;5;7;8;1;1;1;1;30;30;1;8;3;1;5;35;2;3;2;2;1;1;2;3;1;3,978;0;19;450;4;7;0;9;4;1;1
13;1;2;89;2;19;7;8;1;1;0;1;0;30;2;8;5;2;19;35;2;2;2;2;2;1;2;2;3;10,296;0;21;200;6;7;0;9;4;0;1
13;1;3;94;3;26;7;8;1;1;0;1;0;30;3;12;10;3;26;35;2;3;2;2;1;1;2;3;1;4,399;1;20;100;3;5;0;6;6;0;1
13;1;3;96;4;23;7;8;1;1;1;1;30;30;3;12;12;4;23;35;2;3;2;2;2;1;1;2;2;1,981;0;26;700;8;7;0;9;1;1;0
13;1;1;87;5;1;7;8;1;1;1;1;30;30;1;8;3;5;1;35;2;3;2;2;2;1;2;3;2;8,159;1;22;200;6;6;4;9;5;0;1
13;1;3;93;6;8;7;8;1;1;1;1;30;30;3;12;9;6;8;35;2;3;2;2;1;1;2;3;2;5,382;0;18;600;5;3;0;9;4;1;1
13;1;3;98;7;11;7;8;0;1;0;0;17;0;3;12;14;7;11;35;2;3;2;2;2;1;2;2;1;4,461;0;20;150;7;7;0;7;8;0;1
13;1;3;93;8;6;7;8;1;1;1;1;30;30;3;12;9;8;6;35;2;3;2;2;2;1;2;3;2;3,775;0;20;95;10;7;0;9;4;0;1
13;1;1;88;9;18;7;8;1;1;1;1;30;30;1;8;4;9;18;35;2;3;2;2;1;1;2;3;2;4,477;1;28;1050;4;4;1;9;4;1;1
13;1;1;85;10;24;7;8;1;1;1;1;30;30;1;8;1;10;24;35;3;3;2;2;2;1;2;2;2;2,168;1;23;300;5;7;3;1;5;0;0
13;1;3;98;11;7;7;8;1;0;0;0;0;17;3;12;14;11;7;35;2;3;2;2;1;1;2;3;2;2,106;0;23;250;5;2;0;9;1;1;1
13;1;1;86;12;20;7;8;1;1;1;0;30;0;1;8;2;12;20;35;2;2;2;2;1;1;2;3;1;4,305;0;21;250;8;9;3;9;4;0;1
13;1;3;97;13;21;7;8;1;1;1;1;30;30;3;12;13;13;21;35;2;3;2;2;1;1;2;1;1;3,619;1;23;300;5;7;1;9;6;1;1
13;1;2;92;14;27;7;8;1;1;1;1;30;30;2;8;8;14;27;35;2;3;2;2;1;1;2;2;1;2,933;0;23;170;5;5;0;9;4;0;1
13;1;2;90;15;25;7;8;1;1;1;1;30;30;2;8;6;15;25;35;2;3;2;2;1;1;2;2;1;2,215;0;19;400;5;4;1;9;4;0;1
13;1;2;91;16;22;7;8;1;1;1;1;30;30;2;8;7;16;22;35;2;3;2;2;1;1;2;3;1;6,177;0;21;350;8;3;0;9;4;1;1
13;1;3;95;17;28;7;8;1;1;1;1;30;30;3;12;11;17;28;35;2;3;2;2;2;1;2;2;3;6,24;0;20;100;5;7;0;8;1;0;1
13;1;1;88;18;9;7;8;1;1;1;1;30;30;1;8;4;18;9;35;3;3;2;2;1;1;2;3;1;5,522;0;23;500;3;6;0;9;4;1;1
13;1;2;89;19;2;7;8;1;1;1;0;30;0;2;8;5;19;2;35;2;3;2;2;2;1;2;3;1;2,979;1;21;200;5;5;1;8;4;0;1
13;1;1;86;20;12;7;8;1;1;0;1;0;30;1;8;2;20;12;35;2;2;2;2;2;1;2;1;1;2,699;1;22;450;4;7;0;9;6;1;1
13;1;3;97;21;13;7;8;1;1;1;1;30;30;3;12;13;21;13;35;2;2;2;2;1;1;2;3;2;2,855;1;20;400;6;7;0;9;5;0;1
13;1;2;91;22;16;7;8;1;1;1;1;30;30;2;8;7;22;16;35;2;3;2;2;1;1;2;2;1;3,619;1;25;400;5;6;0;9;4;0;1
13;1;3;96;23;4;7;8;1;1;1;1;30;30;3;12;12;23;4;35;2;3;2;2;1;1;2;3;1;2,48;0;23;300;6;7;0;9;8;1;1
13;1;1;85;24;10;7;8;1;1;1;1;30;30;1;8;1;24;10;35;2;2;2;2;2;1;2;2;1;4,633;0;20;100;8;5;0;9;5;0;1
13;1;2;90;25;15;7;8;1;1;1;1;30;30;2;8;6;25;15;35;2;3;2;2;2;1;2;3;1;2,636;0;22;300;5;7;0;9;1;1;1
13;1;3;94;26;3;7;8;1;1;1;0;30;0;3;12;10;26;3;35;2;3;2;2;1;1;2;2;1;3,557;1;20;150;9;8;0;9;6;0;1
13;1;2;92;27;14;7;8;1;1;1;1;30;30;2;8;8;27;14;35;2;2;2;2;2;1;2;2;2;4,025;0;19;300;5;4;4;9;5;1;0
13;1;3;95;28;17;7;8;1;1;1;1;30;30;3;12;11;28;17;35;2;3;2;2;2;1;2;3;1;4,383;0;21;300;5;2;5;8;5;0;1
13;1;1;87;1;5;7;9;1;1;1;1;30;30;1;8;3;1;5;36;2;3;2;2;1;1;2;3;1;2,402;0;19;450;4;7;0;9;4;1;1
13;1;2;89;2;19;7;9;1;1;1;1;30;30;2;8;5;2;19;36;2;2;2;2;2;1;2;2;3;5,803;0;21;200;6;7;0;9;4;0;1
13;1;3;94;3;26;7;9;1;1;1;1;30;30;3;12;10;3;26;36;2;3;2;2;1;1;2;3;1;4,492;1;20;100;3;5;0;6;6;0;1
13;1;3;96;4;23;7;9;1;1;1;1;30;30;3;12;12;4;23;36;2;3;2;2;2;1;1;2;2;2,449;0;26;700;8;7;0;9;1;1;0
13;1;1;87;5;1;7;9;1;1;1;1;30;30;1;8;3;5;1;36;2;3;2;2;2;1;2;3;2;2,34;1;22;200;6;6;4;9;5;0;1
13;1;3;93;6;8;7;9;1;1;1;1;30;30;3;12;9;6;8;36;2;3;2;2;1;1;2;3;2;9,64;0;18;600;5;3;0;9;4;1;1
13;1;3;98;7;11;7;9;0;0;0;1;17;37;3;12;14;7;11;36;2;3;2;2;2;1;2;2;1;6,489;0;20;150;7;7;0;7;8;0;1
13;1;3;93;8;6;7;9;1;1;1;1;30;30;3;12;9;8;6;36;2;3;2;2;2;1;2;3;2;3,369;0;20;95;10;7;0;9;4;0;1
13;1;1;88;9;18;7;9;1;1;1;1;30;30;1;8;4;9;18;36;2;3;2;2;1;1;2;3;2;6,286;1;28;1050;4;4;1;9;4;1;1
13;1;1;85;10;24;7;9;1;1;1;0;30;0;1;8;1;10;24;36;3;3;2;2;2;1;2;2;2;3,4;1;23;300;5;7;3;1;5;0;0
13;1;3;98;11;7;7;9;0;0;1;0;37;17;3;12;14;11;7;36;2;3;2;2;1;1;2;3;2;4,087;0;23;250;5;2;0;9;1;1;1
13;1;1;86;12;20;7;9;1;1;1;1;30;30;1;8;2;12;20;36;2;2;2;2;1;1;2;3;1;2,652;0;21;250;8;9;3;9;4;0;1
13;1;3;97;13;21;7;9;1;1;1;1;30;30;3;12;13;13;21;36;2;3;2;2;1;1;2;1;1;3,978;1;23;300;5;7;1;9;6;1;1
13;1;2;92;14;27;7;9;1;1;1;1;30;30;2;8;8;14;27;36;2;3;2;2;1;1;2;2;1;3,244;0;23;170;5;5;0;9;4;0;1
13;1;2;90;15;25;7;9;1;1;0;1;0;30;2;8;6;15;25;36;2;3;2;2;1;1;2;2;1;2,574;0;19;400;5;4;1;9;4;0;1
13;1;2;91;16;22;7;9;1;1;1;1;30;30;2;8;7;16;22;36;2;3;2;2;1;1;2;3;1;5,865;0;21;350;8;3;0;9;4;1;1
13;1;3;95;17;28;7;9;1;1;1;1;30;30;3;12;11;17;28;36;2;3;2;2;2;1;2;2;3;3,322;0;20;100;5;7;0;8;1;0;1
13;1;1;88;18;9;7;9;1;1;1;1;30;30;1;8;4;18;9;36;3;3;2;2;1;1;2;3;1;6,567;0;23;500;3;6;0;9;4;1;1
13;1;2;89;19;2;7;9;1;1;1;1;30;30;2;8;5;19;2;36;2;3;2;2;2;1;2;3;1;2,574;1;21;200;5;5;1;8;4;0;1
13;1;1;86;20;12;7;9;1;1;1;1;30;30;1;8;2;20;12;36;2;2;2;2;2;1;2;1;1;2,496;1;22;450;4;7;0;9;6;1;1
13;1;3;97;21;13;7;9;1;1;1;1;30;30;3;12;13;21;13;36;2;2;2;2;1;1;2;3;2;2,776;1;20;400;6;7;0;9;5;0;1
13;1;2;91;22;16;7;9;1;1;1;1;30;30;2;8;7;22;16;36;2;3;2;2;1;1;2;2;1;4,57;1;25;400;5;6;0;9;4;0;1
13;1;3;96;23;4;7;9;1;1;1;1;30;30;3;12;12;23;4;36;2;3;2;2;1;1;2;3;1;4,773;0;23;300;6;7;0;9;8;1;1
13;1;1;85;24;10;7;9;1;1;0;1;0;30;1;8;1;24;10;36;2;2;2;2;2;1;2;2;1;4,165;0;20;100;8;5;0;9;5;0;1
13;1;2;90;25;15;7;9;1;1;1;0;30;0;2;8;6;25;15;36;2;3;2;2;2;1;2;3;1;2,792;0;22;300;5;7;0;9;1;1;1
13;1;3;94;26;3;7;9;1;1;1;1;30;30;3;12;10;26;3;36;2;3;2;2;1;1;2;2;1;3,681;1;20;150;9;8;0;9;6;0;1
13;1;2;92;27;14;7;9;1;1;1;1;30;30;2;8;8;27;14;36;2;2;2;2;2;1;2;2;2;3,775;0;19;300;5;4;4;9;5;1;0
13;1;3;95;28;17;7;9;1;1;1;1;30;30;3;12;11;28;17;36;2;3;2;2;2;1;2;3;1;4,29;0;21;300;5;2;5;8;5;0;1
13;1;1;87;1;5;7;10;1;1;1;1;30;30;1;8;3;1;5;37;2;3;2;2;1;1;2;3;1;5,475;0;19;450;4;7;0;9;4;1;1
13;1;2;89;2;19;7;10;1;1;1;1;30;30;2;8;5;2;19;37;2;2;2;2;2;1;2;2;3;11,575;0;21;200;6;7;0;9;4;0;1
13;1;3;94;3;26;7;10;1;1;1;1;30;30;3;12;10;3;26;37;2;3;2;2;1;1;2;3;1;3,042;1;20;100;3;5;0;6;6;0;1
13;1;3;96;4;23;7;10;1;1;1;1;30;30;3;12;12;4;23;37;2;3;2;2;2;1;1;2;2;4,212;0;26;700;8;7;0;9;1;1;0
13;1;1;87;5;1;7;10;1;1;1;1;30;30;1;8;3;5;1;37;2;3;2;2;2;1;2;3;2;3,104;1;22;200;6;6;4;9;5;0;1
13;1;3;93;6;8;7;10;1;1;1;1;30;30;3;12;9;6;8;37;2;3;2;2;1;1;2;3;2;4,929;0;18;600;5;3;0;9;4;1;1
13;1;3;98;7;11;7;10;0;1;1;0;37;0;3;12;14;7;11;37;2;3;2;2;2;1;2;2;1;3,401;0;20;150;7;7;0;7;8;0;1
13;1;3;93;8;6;7;10;1;1;1;1;30;30;3;12;9;8;6;37;2;3;2;2;2;1;2;3;2;3,026;0;20;95;10;7;0;9;4;0;1
13;1;1;88;9;18;7;10;1;1;1;1;30;30;1;8;4;9;18;37;2;3;2;2;1;1;2;3;2;8,221;1;28;1050;4;4;1;9;4;1;1
13;1;1;85;10;24;7;10;1;1;0;1;0;30;1;8;1;10;24;37;3;3;2;2;2;1;2;2;2;4,352;1;23;300;5;7;3;1;5;0;0
13;1;3;98;11;7;7;10;1;0;0;1;0;37;3;12;14;11;7;37;2;3;2;2;1;1;2;3;2;7,971;0;23;250;5;2;0;9;1;1;1
13;1;1;86;12;20;7;10;1;1;1;1;30;30;1;8;2;12;20;37;2;2;2;2;1;1;2;3;1;2,48;0;21;250;8;9;3;9;4;0;1
13;1;3;97;13;21;7;10;1;1;1;1;30;30;3;12;13;13;21;37;2;3;2;2;1;1;2;1;1;5,117;1;23;300;5;7;1;9;6;1;1
13;1;2;92;14;27;7;10;1;1;1;1;30;30;2;8;8;14;27;37;2;3;2;2;1;1;2;2;1;5,007;0;23;170;5;5;0;9;4;0;1
13;1;2;90;15;25;7;10;1;1;1;1;30;30;2;8;6;15;25;37;2;3;2;2;1;1;2;2;1;2,449;0;19;400;5;4;1;9;4;0;1
13;1;2;91;16;22;7;10;1;1;1;1;30;30;2;8;7;16;22;37;2;3;2;2;1;1;2;3;1;5,772;0;21;350;8;3;0;9;4;1;1
13;1;3;95;17;28;7;10;1;1;1;1;30;30;3;12;11;17;28;37;2;3;2;2;2;1;2;2;3;5,21;0;20;100;5;7;0;8;1;0;1
13;1;1;88;18;9;7;10;1;1;1;1;30;30;1;8;4;18;9;37;3;3;2;2;1;1;2;3;1;4,602;0;23;500;3;6;0;9;4;1;1
13;1;2;89;19;2;7;10;1;1;1;1;30;30;2;8;5;19;2;37;2;3;2;2;2;1;2;3;1;2,075;1;21;200;5;5;1;8;4;0;1
13;1;1;86;20;12;7;10;1;1;1;1;30;30;1;8;2;20;12;37;2;2;2;2;2;1;2;1;1;1,919;1;22;450;4;7;0;9;6;1;1
13;1;3;97;21;13;7;10;1;1;1;1;30;30;3;12;13;21;13;37;2;2;2;2;1;1;2;3;2;2,121;1;20;400;6;7;0;9;5;0;1
13;1;2;91;22;16;7;10;1;1;1;1;30;30;2;8;7;22;16;37;2;3;2;2;1;1;2;2;1;2,964;1;25;400;5;6;0;9;4;0;1
13;1;3;96;23;4;7;10;1;1;1;1;30;30;3;12;12;23;4;37;2;3;2;2;1;1;2;3;1;3,338;0;23;300;6;7;0;9;8;1;1
13;1;1;85;24;10;7;10;1;1;1;0;30;0;1;8;1;24;10;37;2;2;2;2;2;1;2;2;1;5,054;0;20;100;8;5;0;9;5;0;1
13;1;2;90;25;15;7;10;1;1;1;1;30;30;2;8;6;25;15;37;2;3;2;2;2;1;2;3;1;2,028;0;22;300;5;7;0;9;1;1;1
13;1;3;94;26;3;7;10;1;1;1;1;30;30;3;12;10;26;3;37;2;3;2;2;1;1;2;2;1;6,38;1;20;150;9;8;0;9;6;0;1
13;1;2;92;27;14;7;10;1;1;1;1;30;30;2;8;8;27;14;37;2;2;2;2;2;1;2;2;2;6,099;0;19;300;5;4;4;9;5;1;0
13;1;3;95;28;17;7;10;1;1;1;1;30;30;3;12;11;28;17;37;2;3;2;2;2;1;2;3;1;3,12;0;21;300;5;2;5;8;5;0;1
13;1;1;87;1;5;7;11;1;1;1;1;30;30;1;8;3;1;5;38;2;3;2;2;1;1;2;3;1;7,161;0;19;450;4;7;0;9;4;1;1
13;1;2;89;2;19;7;11;1;1;1;1;30;30;2;8;5;2;19;38;2;2;2;2;2;1;2;2;3;4,446;0;21;200;6;7;0;9;4;0;1
13;1;3;94;3;26;7;11;1;1;1;1;30;30;3;12;10;3;26;38;2;3;2;2;1;1;2;3;1;2,995;1;20;100;3;5;0;6;6;0;1
